SensorId, QuatW, QuatX, QuatY, QuatZ, LinAccX (g), LinAccY (g), LinAccZ (g)
1.0,0.82749999,-0.51410002,-0.1908,-0.11979999,0.0,-0.001,0.001
1.0,0.82749999,-0.51410002,-0.1908,-0.11979999,0.002,0.0,0.0
1.0,0.82749999,-0.51410002,-0.1908,-0.11979999,0.001,-0.001,0.001
1.0,0.82749999,-0.51410002,-0.1908,-0.11979999,0.0,-0.001,0.001
1.0,0.82749999,-0.514,-0.1908,-0.11979999,0.0,-0.001,0.0
1.0,0.8276,-0.514,-0.1908,-0.11979999,-0.001,-0.002,0.001
1.0,0.8276,-0.514,-0.1909,-0.11979999,-0.001,-0.002,0.001
1.0,0.8276,-0.514,-0.1909,-0.11979999,-0.001,0.0,0.0
1.0,0.8276,-0.514,-0.1909,-0.1197,0.0,-0.001,0.0
1.0,0.8276,-0.514,-0.1909,-0.1197,0.0,-0.001,0.0
1.0,0.8276,-0.514,-0.1908,-0.1197,0.003,0.0,0.0
1.0,0.8276,-0.514,-0.1908,-0.1197,0.001,-0.002,0.0
1.0,0.8276,-0.514,-0.1909,-0.1196,-0.002,-0.002,0.0
1.0,0.8276,-0.514,-0.1909,-0.1196,0.0,-0.001,0.0
1.0,0.8276,-0.514,-0.1909,-0.1196,-0.001,-0.002,0.0
1.0,0.82749999,-0.51410002,-0.1909,-0.1196,-0.001,-0.001,0.0
1.0,0.82749999,-0.51410002,-0.1909,-0.1196,0.001,0.0,0.0
1.0,0.82749999,-0.51410002,-0.1909,-0.1196,0.002,0.0,0.0
1.0,0.82749999,-0.51410002,-0.1909,-0.1195,0.003,-0.001,0.0
1.0,0.82749999,-0.51410002,-0.1909,-0.1195,0.0,0.0,0.0
1.0,0.82749999,-0.51410002,-0.191,-0.1195,0.0,-0.001,0.001
1.0,0.82749999,-0.51410002,-0.191,-0.1195,-0.002,-0.002,0.001
1.0,0.82749999,-0.51410002,-0.191,-0.1195,-0.002,-0.001,0.0
1.0,0.82749999,-0.51410002,-0.191,-0.11939999,-0.001,-0.002,0.0
1.0,0.82749999,-0.51410002,-0.1911,-0.11939999,-0.001,-0.002,0.001
1.0,0.82749999,-0.514,-0.1911,-0.11939999,0.0,-0.001,0.0
1.0,0.82749999,-0.51410002,-0.191,-0.11939999,0.004,-0.001,0.0
1.0,0.82749999,-0.51410002,-0.1911,-0.1193,0.001,-0.001,0.001
1.0,0.82749999,-0.51410002,-0.1911,-0.1193,0.001,-0.001,0.0
1.0,0.82749999,-0.51410002,-0.1911,-0.1193,-0.001,-0.002,0.0
1.0,0.82749999,-0.51410002,-0.1911,-0.1192,0.0,-0.001,0.0
1.0,0.82749999,-0.51410002,-0.1911,-0.1192,-0.001,-0.002,0.0
1.0,0.82749999,-0.514,-0.19119999,-0.1192,-0.004,-0.001,0.001
1.0,0.82749999,-0.514,-0.19119999,-0.1192,-0.001,-0.001,0.0
1.0,0.8276,-0.514,-0.19119999,-0.1192,0.0,-0.001,0.001
1.0,0.8276,-0.514,-0.19119999,-0.1192,0.003,-0.001,0.0
1.0,0.8276,-0.514,-0.19119999,-0.1192,0.005,-0.002,0.0
1.0,0.8276,-0.514,-0.19119999,-0.1192,0.001,-0.002,0.0
1.0,0.8276,-0.514,-0.19119999,-0.1191,0.003,0.0,0.0
1.0,0.8276,-0.514,-0.19119999,-0.1191,0.001,-0.002,0.0
1.0,0.8276,-0.514,-0.19129999,-0.1191,-0.003,-0.001,0.001
1.0,0.8276,-0.51389998,-0.19129999,-0.119,-0.003,-0.004,0.002
1.0,0.8276,-0.51389998,-0.19129999,-0.119,-0.002,-0.001,0.001
1.0,0.8276,-0.51389998,-0.19139999,-0.119,-0.003,-0.002,0.0
1.0,0.8276,-0.51389998,-0.19139999,-0.119,-0.002,-0.002,0.0
1.0,0.8276,-0.51389998,-0.19139999,-0.119,-0.001,0.0,0.0
1.0,0.8276,-0.514,-0.19139999,-0.119,0.003,0.0,-0.001
1.0,0.8276,-0.51389998,-0.19129999,-0.119,0.001,-0.002,0.0
1.0,0.8276,-0.51389998,-0.19139999,-0.119,0.0,-0.001,0.0
1.0,0.8276,-0.51389998,-0.19139999,-0.119,0.001,-0.001,0.001
1.0,0.8276,-0.51389998,-0.19139999,-0.119,0.0,-0.002,0.001
1.0,0.8276,-0.51389998,-0.19129999,-0.11889999,0.001,-0.001,0.0
1.0,0.8276,-0.51389998,-0.19129999,-0.11889999,0.0,0.0,0.001
1.0,0.82769996,-0.51389998,-0.19139999,-0.11889999,-0.003,-0.001,0.001
1.0,0.82769996,-0.51389998,-0.19139999,-0.11889999,0.001,0.0,-0.001
1.0,0.82769996,-0.51379997,-0.19139999,-0.11889999,-0.001,-0.002,0.001
1.0,0.82769996,-0.51379997,-0.19139999,-0.11889999,-0.001,-0.001,0.001
1.0,0.82769996,-0.51379997,-0.19139999,-0.11889999,0.0,-0.002,0.001
1.0,0.82769996,-0.51379997,-0.19129999,-0.11889999,0.0,-0.002,0.001
1.0,0.82769996,-0.51379997,-0.19129999,-0.11889999,0.002,-0.001,0.0
1.0,0.82769996,-0.51379997,-0.19119999,-0.11889999,0.005,-0.001,0.0
1.0,0.82769996,-0.51379997,-0.19129999,-0.11889999,0.0,-0.001,0.0
1.0,0.82769996,-0.51379997,-0.19129999,-0.11889999,0.0,-0.002,0.0
1.0,0.82769996,-0.51379997,-0.19129999,-0.11889999,0.0,-0.001,0.001
1.0,0.82769996,-0.51379997,-0.19129999,-0.11889999,0.0,-0.001,0.0
1.0,0.82769996,-0.51379997,-0.19129999,-0.11889999,-0.001,-0.002,0.0
1.0,0.82779998,-0.51370001,-0.19129999,-0.11889999,-0.003,-0.001,0.0
1.0,0.82779998,-0.51370001,-0.19129999,-0.11889999,0.0,-0.001,0.0
1.0,0.82779998,-0.51370001,-0.19129999,-0.11889999,0.001,-0.001,0.0
1.0,0.82779998,-0.51370001,-0.19129999,-0.11889999,0.0,-0.002,0.0
1.0,0.82779998,-0.51370001,-0.19119999,-0.11889999,0.002,-0.001,0.0
1.0,0.82779998,-0.51379997,-0.19119999,-0.11889999,0.003,-0.001,0.0
1.0,0.82779998,-0.51379997,-0.19119999,-0.11889999,0.002,-0.001,0.0
1.0,0.82779998,-0.51379997,-0.19119999,-0.1188,0.0,-0.002,0.001
1.0,0.82779998,-0.51370001,-0.19119999,-0.1188,-0.001,-0.001,0.001
1.0,0.82779998,-0.51370001,-0.19119999,-0.1188,0.0,-0.001,0.0
1.0,0.82779998,-0.51370001,-0.19129999,-0.1188,-0.002,-0.001,0.0
1.0,0.82779998,-0.51370001,-0.19129999,-0.1188,-0.001,0.0,0.0
1.0,0.82779998,-0.51370001,-0.19129999,-0.1188,0.0,-0.002,0.0
1.0,0.82779998,-0.51370001,-0.19129999,-0.11889999,0.001,-0.002,0.0
1.0,0.82779998,-0.51370001,-0.19119999,-0.11889999,0.001,-0.001,0.001
1.0,0.82779998,-0.51370001,-0.19119999,-0.11889999,0.0,-0.001,0.0
1.0,0.82779998,-0.51379997,-0.19119999,-0.11889999,0.002,-0.002,0.0
1.0,0.82779998,-0.51379997,-0.19119999,-0.11889999,0.001,-0.001,0.0
1.0,0.82779998,-0.51379997,-0.19119999,-0.11889999,0.0,-0.002,0.0
1.0,0.82779998,-0.51379997,-0.19119999,-0.11889999,0.001,-0.001,0.0
1.0,0.82779998,-0.51379997,-0.19119999,-0.11889999,0.001,-0.002,0.0
1.0,0.82779998,-0.51370001,-0.19129999,-0.11889999,-0.003,-0.002,0.002
1.0,0.82779998,-0.51370001,-0.19129999,-0.11889999,0.0,-0.002,0.0
1.0,0.82769996,-0.51379997,-0.19129999,-0.11889999,0.0,-0.001,0.001
1.0,0.82769996,-0.51379997,-0.19129999,-0.11889999,0.0,-0.001,0.0
1.0,0.82769996,-0.51379997,-0.19119999,-0.11889999,0.0,-0.001,-0.001
1.0,0.82769996,-0.51379997,-0.19119999,-0.11889999,0.001,0.0,0.0
1.0,0.82769996,-0.51379997,-0.19119999,-0.11889999,0.001,-0.001,0.0
1.0,0.82769996,-0.51379997,-0.19119999,-0.119,0.0,-0.001,0.001
1.0,0.82779998,-0.51370001,-0.19119999,-0.11889999,-0.002,-0.003,0.002
1.0,0.82779998,-0.51370001,-0.19119999,-0.11889999,0.0,-0.001,0.0
1.0,0.82779998,-0.51370001,-0.19119999,-0.119,0.0,-0.001,0.0
1.0,0.82769996,-0.51379997,-0.19119999,-0.119,-0.002,0.0,0.0
1.0,0.82769996,-0.51379997,-0.19119999,-0.119,0.0,0.0,0.0
1.0,0.82769996,-0.51379997,-0.19119999,-0.119,0.0,-0.001,0.0
1.0,0.82769996,-0.51379997,-0.19119999,-0.119,0.001,-0.002,0.0
1.0,0.82769996,-0.51379997,-0.19119999,-0.119,0.001,-0.002,0.002
1.0,0.82769996,-0.51379997,-0.1911,-0.119,0.002,0.0,0.002
1.0,0.82769996,-0.51379997,-0.1911,-0.119,0.002,-0.001,0.0
1.0,0.82769996,-0.51379997,-0.1911,-0.119,-0.001,-0.001,0.0
1.0,0.82769996,-0.51389998,-0.1911,-0.119,-0.001,-0.001,0.0
1.0,0.82769996,-0.51389998,-0.1911,-0.119,-0.001,-0.001,0.0
1.0,0.82769996,-0.51389998,-0.1911,-0.119,-0.003,-0.002,0.0
1.0,0.82769996,-0.51389998,-0.1911,-0.119,-0.002,-0.002,0.001
1.0,0.82769996,-0.51389998,-0.1911,-0.1191,0.0,-0.002,0.0
1.0,0.82769996,-0.51389998,-0.1911,-0.1191,0.0,-0.002,0.0
1.0,0.8276,-0.514,-0.191,-0.1191,0.001,-0.001,0.0
1.0,0.8276,-0.514,-0.191,-0.1192,0.001,-0.002,0.0
1.0,0.8276,-0.514,-0.191,-0.1192,0.001,-0.002,0.0
1.0,0.8276,-0.514,-0.1909,-0.1192,0.001,0.0,0.0
1.0,0.8276,-0.514,-0.1909,-0.1193,-0.001,-0.002,0.0
1.0,0.8276,-0.514,-0.1909,-0.1193,-0.001,-0.003,0.001
1.0,0.8276,-0.51410002,-0.1909,-0.1193,0.0,0.0,0.0
1.0,0.8276,-0.51410002,-0.1908,-0.1193,0.001,-0.001,0.0
1.0,0.8276,-0.51410002,-0.1908,-0.1193,0.001,-0.002,0.001
1.0,0.8276,-0.51410002,-0.1908,-0.11939999,0.0,-0.001,0.001
1.0,0.82749999,-0.51419997,-0.1908,-0.11939999,0.004,-0.001,0.0
1.0,0.82749999,-0.51419997,-0.1908,-0.11939999,-0.001,-0.002,0.001
1.0,0.82749999,-0.51419997,-0.1908,-0.11939999,-0.003,-0.001,0.001
1.0,0.82749999,-0.51419997,-0.19069999,-0.11939999,0.001,0.0,0.0
1.0,0.82749999,-0.51419997,-0.19069999,-0.11939999,0.0,-0.002,0.001
1.0,0.82749999,-0.51419997,-0.19069999,-0.11939999,0.0,-0.001,0.0
1.0,0.82749999,-0.51429999,-0.19069999,-0.11939999,0.002,-0.002,0.0
1.0,0.82749999,-0.51429999,-0.19069999,-0.11939999,0.0,-0.001,0.001
1.0,0.82749999,-0.51429999,-0.19069999,-0.11939999,0.0,-0.001,0.0
1.0,0.82749999,-0.51429999,-0.19069999,-0.11939999,-0.002,-0.002,0.001
1.0,0.82749999,-0.51429999,-0.19069999,-0.11939999,-0.004,-0.003,0.001
1.0,0.82749999,-0.51429999,-0.19059999,-0.11939999,0.0,-0.001,0.001
1.0,0.82749999,-0.51429999,-0.19059999,-0.11939999,0.0,-0.001,0.0
1.0,0.82749999,-0.51440001,-0.19059999,-0.11939999,0.0,-0.001,0.0
1.0,0.82749999,-0.51440001,-0.19049999,-0.1195,0.001,-0.001,0.0
1.0,0.82749999,-0.51440001,-0.19049999,-0.1195,0.002,-0.001,0.0
1.0,0.82749999,-0.51440001,-0.19049999,-0.1195,0.0,-0.002,0.0
1.0,0.82749999,-0.51440001,-0.19049999,-0.1195,-0.002,-0.002,0.001
1.0,0.82749999,-0.51440001,-0.19049999,-0.1195,-0.002,-0.002,0.0
1.0,0.82739997,-0.51440001,-0.19049999,-0.1195,0.0,-0.001,0.0
1.0,0.82739997,-0.51440001,-0.19049999,-0.1195,0.0,-0.001,0.0
1.0,0.82739997,-0.51440001,-0.19049999,-0.1195,0.001,0.0,0.0
1.0,0.82739997,-0.51440001,-0.19049999,-0.1195,0.001,-0.001,0.0
1.0,0.82739997,-0.51440001,-0.19049999,-0.1195,0.0,-0.002,0.001
1.0,0.82739997,-0.51440001,-0.19049999,-0.1195,0.001,0.0,0.0
1.0,0.82739997,-0.51440001,-0.19049999,-0.1195,0.0,-0.002,0.001
1.0,0.82739997,-0.51440001,-0.19059999,-0.1195,-0.003,-0.003,0.002
1.0,0.82749999,-0.51440001,-0.19059999,-0.1195,0.001,-0.002,0.003
1.0,0.82749999,-0.51440001,-0.19059999,-0.11939999,0.007,-0.001,-0.002
1.0,0.82749999,-0.51429999,-0.19059999,-0.11939999,0.0,-0.005,0.001
1.0,0.82749999,-0.51429999,-0.19069999,-0.11939999,-0.001,0.0,0.0
1.0,0.82749999,-0.51429999,-0.19069999,-0.1193,0.002,0.0,0.001
1.0,0.82749999,-0.51429999,-0.19069999,-0.1193,0.001,-0.004,0.0
1.0,0.82749999,-0.51429999,-0.1908,-0.1193,-0.002,-0.001,0.001
1.0,0.82749999,-0.51429999,-0.1908,-0.1192,0.0,-0.001,0.001
1.0,0.82739997,-0.51429999,-0.1909,-0.1192,-0.002,-0.002,0.001
1.0,0.82739997,-0.51429999,-0.1909,-0.1191,-0.001,-0.001,0.001
1.0,0.82739997,-0.51440001,-0.1909,-0.1191,0.0,-0.001,0.0
1.0,0.82739997,-0.51440001,-0.191,-0.1191,-0.001,0.0,0.0
1.0,0.82739997,-0.51440001,-0.191,-0.1191,-0.004,-0.003,0.001
1.0,0.82739997,-0.51440001,-0.191,-0.1191,-0.004,-0.003,0.002
1.0,0.82739997,-0.51440001,-0.191,-0.1191,-0.002,-0.002,0.002
1.0,0.82739997,-0.51449996,-0.191,-0.1191,-0.003,-0.002,0.0
1.0,0.82729995,-0.51449996,-0.1909,-0.1191,0.0,-0.001,0.0
1.0,0.82729995,-0.51459998,-0.1909,-0.1191,0.002,0.0,-0.001
1.0,0.82729995,-0.51459998,-0.1908,-0.1191,0.004,0.0,-0.001
1.0,0.82729995,-0.51459998,-0.1908,-0.1191,0.007,-0.001,0.0
1.0,0.82729995,-0.51459998,-0.1908,-0.1191,0.001,-0.001,0.0
1.0,0.82729995,-0.51459998,-0.1908,-0.1191,-0.001,-0.002,0.0
1.0,0.82729995,-0.51459998,-0.1909,-0.1191,-0.002,-0.001,0.001
1.0,0.82729995,-0.51459998,-0.1909,-0.1191,-0.005,-0.003,0.0
1.0,0.82729995,-0.51459998,-0.1909,-0.1191,-0.005,-0.002,0.0
1.0,0.82729995,-0.51459998,-0.1909,-0.1191,-0.002,-0.002,0.001
1.0,0.82729995,-0.51459998,-0.1908,-0.1191,0.002,-0.001,0.0
1.0,0.82729995,-0.51459998,-0.1908,-0.1191,0.002,-0.001,0.001
1.0,0.82729995,-0.5147,-0.19069999,-0.1192,0.002,-0.001,0.001
1.0,0.82729995,-0.5147,-0.19069999,-0.1192,0.002,-0.002,0.001
1.0,0.82729995,-0.5147,-0.19069999,-0.1191,0.003,-0.001,0.0
1.0,0.82729995,-0.5147,-0.19069999,-0.1191,0.0,0.0,0.001
1.0,0.82729995,-0.5147,-0.19069999,-0.1191,-0.002,0.0,0.0
1.0,0.82729995,-0.5147,-0.19069999,-0.1191,-0.003,-0.001,0.001
1.0,0.8272,-0.5147,-0.19069999,-0.1191,-0.001,-0.002,0.0
1.0,0.8272,-0.5147,-0.19069999,-0.1191,-0.001,-0.002,0.0
1.0,0.8272,-0.5147,-0.19069999,-0.1191,-0.002,-0.002,0.001
1.0,0.8272,-0.5147,-0.19069999,-0.1191,0.0,-0.001,0.0
1.0,0.8272,-0.51480001,-0.19059999,-0.1192,0.001,-0.001,0.0
1.0,0.8272,-0.51480001,-0.19059999,-0.1192,0.002,0.0,0.0
1.0,0.8272,-0.51480001,-0.19049999,-0.1192,0.003,-0.001,0.001
1.0,0.8272,-0.51480001,-0.19049999,-0.1192,0.001,-0.002,0.0
1.0,0.8272,-0.51480001,-0.19049999,-0.1192,-0.001,-0.002,0.0
1.0,0.8272,-0.51480001,-0.19059999,-0.1192,-0.002,0.0,0.001
1.0,0.8272,-0.51480001,-0.19049999,-0.1192,-0.002,-0.002,0.0
1.0,0.8272,-0.51480001,-0.19049999,-0.1193,-0.002,-0.002,0.0
1.0,0.8272,-0.51480001,-0.19049999,-0.1193,-0.001,-0.002,0.0
1.0,0.8272,-0.51480001,-0.19049999,-0.1193,0.002,-0.001,0.001
1.0,0.8272,-0.51480001,-0.19039999,-0.11939999,0.002,-0.001,0.002
1.0,0.8272,-0.51480001,-0.19039999,-0.11939999,0.0,-0.001,0.0
1.0,0.8272,-0.51480001,-0.19039999,-0.11939999,0.0,-0.003,0.0
1.0,0.82729995,-0.51480001,-0.19039999,-0.11939999,0.0,-0.002,0.0
1.0,0.82729995,-0.5147,-0.19039999,-0.11939999,-0.001,-0.002,0.001
1.0,0.82729995,-0.5147,-0.19039999,-0.11939999,-0.003,-0.002,0.001
1.0,0.82729995,-0.5147,-0.19039999,-0.11939999,0.0,-0.002,0.001
1.0,0.82729995,-0.5147,-0.19039999,-0.11939999,0.001,-0.001,0.0
1.0,0.82729995,-0.5147,-0.19039999,-0.11939999,0.0,-0.001,0.0
1.0,0.82729995,-0.5147,-0.19039999,-0.11939999,0.0,-0.001,0.0
1.0,0.82729995,-0.51480001,-0.19039999,-0.11939999,0.001,0.0,0.0
1.0,0.82729995,-0.51480001,-0.19029999,-0.11939999,0.003,-0.001,0.0
1.0,0.82729995,-0.51480001,-0.19039999,-0.11939999,-0.001,-0.001,0.0
1.0,0.82729995,-0.5147,-0.19039999,-0.11939999,-0.002,-0.002,0.0
1.0,0.82729995,-0.5147,-0.19039999,-0.1195,-0.003,-0.003,0.002
1.0,0.82729995,-0.5147,-0.19039999,-0.1195,-0.002,-0.003,0.002
1.0,0.82729995,-0.5147,-0.19039999,-0.1195,0.0,-0.002,0.001
1.0,0.82729995,-0.5147,-0.19039999,-0.1195,0.001,-0.002,0.0
1.0,0.82729995,-0.5147,-0.19029999,-0.1195,0.002,-0.001,0.001
1.0,0.82729995,-0.5147,-0.19029999,-0.1195,0.004,-0.001,0.0
1.0,0.82729995,-0.51480001,-0.19029999,-0.1195,0.002,0.0,0.001
1.0,0.82729995,-0.51480001,-0.19029999,-0.11939999,-0.001,-0.001,0.001
1.0,0.82729995,-0.5147,-0.19029999,-0.11939999,-0.003,-0.003,0.001
1.0,0.82729995,-0.51480001,-0.19029999,-0.11939999,-0.002,-0.002,0.0
1.0,0.82729995,-0.51480001,-0.19039999,-0.11939999,-0.001,-0.001,0.0
1.0,0.82729995,-0.51480001,-0.19039999,-0.11939999,0.0,-0.001,0.0
1.0,0.82729995,-0.51480001,-0.19039999,-0.11939999,0.0,-0.001,0.0
1.0,0.82729995,-0.51480001,-0.19039999,-0.11939999,0.001,-0.001,0.0
1.0,0.82729995,-0.51480001,-0.19029999,-0.11939999,0.0,0.0,0.001
1.0,0.82729995,-0.5147,-0.19029999,-0.11939999,0.0,-0.002,0.0
1.0,0.82729995,-0.51480001,-0.19029999,-0.11939999,0.002,0.0,0.0
1.0,0.82729995,-0.5147,-0.19039999,-0.1193,-0.001,-0.001,0.002
1.0,0.82729995,-0.5147,-0.19039999,-0.1193,-0.002,-0.002,0.001
1.0,0.82729995,-0.5147,-0.19039999,-0.1193,0.0,-0.001,0.0
1.0,0.82729995,-0.5147,-0.19039999,-0.1192,-0.002,-0.001,0.0
1.0,0.82729995,-0.5147,-0.19049999,-0.1192,-0.002,-0.001,0.001
1.0,0.82729995,-0.5147,-0.19049999,-0.1192,0.001,-0.001,0.0
1.0,0.82729995,-0.5147,-0.19039999,-0.1192,0.0,-0.001,0.001
1.0,0.82729995,-0.5147,-0.19039999,-0.1192,-0.001,-0.002,0.001
1.0,0.82729995,-0.5147,-0.19049999,-0.1192,-0.002,-0.001,0.0
1.0,0.82729995,-0.5147,-0.19039999,-0.1191,0.0,-0.002,0.0
1.0,0.82729995,-0.5147,-0.19039999,-0.1191,0.0,0.0,0.0
1.0,0.82729995,-0.5147,-0.19039999,-0.1191,0.002,0.0,0.0
1.0,0.82729995,-0.5147,-0.19039999,-0.1191,0.0,-0.002,0.001
1.0,0.82729995,-0.5147,-0.19039999,-0.1191,0.0,0.0,0.0
1.0,0.82729995,-0.5147,-0.19039999,-0.1191,0.0,-0.002,0.0
1.0,0.82739997,-0.5147,-0.19039999,-0.1191,-0.004,-0.002,0.002
1.0,0.82739997,-0.5147,-0.19039999,-0.1191,-0.003,-0.002,0.0
1.0,0.82739997,-0.5147,-0.19039999,-0.119,0.0,-0.001,0.0
1.0,0.82739997,-0.5147,-0.19029999,-0.119,0.0,0.0,-0.001
1.0,0.82739997,-0.5147,-0.19029999,-0.1191,0.002,0.0,-0.001
1.0,0.82739997,-0.5147,-0.19029999,-0.119,0.002,-0.001,0.0
1.0,0.82739997,-0.51459998,-0.1902,-0.119,0.002,-0.002,0.001
1.0,0.82739997,-0.51459998,-0.1902,-0.119,0.003,-0.001,0.001
1.0,0.82739997,-0.51459998,-0.19029999,-0.119,-0.002,-0.001,0.002
1.0,0.82749999,-0.51449996,-0.19039999,-0.119,-0.006,-0.002,0.002
1.0,0.82749999,-0.51449996,-0.19039999,-0.119,-0.001,-0.001,0.0
1.0,0.82749999,-0.51449996,-0.19039999,-0.119,-0.003,-0.002,0.0
1.0,0.82749999,-0.51449996,-0.19029999,-0.119,0.001,0.0,0.0
1.0,0.82749999,-0.51449996,-0.19029999,-0.119,0.003,-0.001,0.0
1.0,0.82749999,-0.51449996,-0.19029999,-0.119,0.005,-0.001,0.0
1.0,0.8276,-0.51440001,-0.19029999,-0.119,0.003,-0.002,0.002
1.0,0.8276,-0.51440001,-0.19029999,-0.119,0.001,0.0,0.0
1.0,0.8276,-0.51440001,-0.19039999,-0.119,-0.003,-0.002,0.001
1.0,0.8276,-0.51429999,-0.19039999,-0.119,-0.001,-0.002,0.0
1.0,0.8276,-0.51429999,-0.19039999,-0.11889999,-0.001,0.0,0.0
1.0,0.8276,-0.51429999,-0.19049999,-0.11889999,-0.001,-0.002,0.0
1.0,0.8276,-0.51429999,-0.19049999,-0.11889999,0.001,-0.001,0.0
1.0,0.82769996,-0.51419997,-0.19049999,-0.1188,0.004,0.0,0.0
1.0,0.82769996,-0.51419997,-0.19049999,-0.1188,0.002,-0.001,0.001
1.0,0.82769996,-0.51419997,-0.19049999,-0.1187,0.0,-0.002,0.001
1.0,0.82769996,-0.51410002,-0.19059999,-0.1187,-0.003,-0.002,0.001
1.0,0.82769996,-0.51410002,-0.19069999,-0.1187,-0.004,-0.002,0.001
1.0,0.82769996,-0.51410002,-0.19069999,-0.1186,-0.003,-0.002,0.001
1.0,0.82769996,-0.51410002,-0.1908,-0.1186,-0.004,-0.001,0.0
1.0,0.82769996,-0.51410002,-0.1908,-0.1186,0.0,0.0,0.0
1.0,0.82769996,-0.51410002,-0.19069999,-0.1186,0.003,-0.001,0.0
1.0,0.82769996,-0.51410002,-0.19069999,-0.1186,0.003,0.0,0.0
1.0,0.82769996,-0.51410002,-0.19069999,-0.1186,0.0,-0.002,0.001
1.0,0.82769996,-0.514,-0.1908,-0.1186,-0.002,-0.002,0.002
1.0,0.82769996,-0.514,-0.1908,-0.1186,0.0,-0.002,0.001
1.0,0.82769996,-0.514,-0.1908,-0.11849999,0.0,-0.002,0.0
1.0,0.82769996,-0.51410002,-0.1908,-0.11849999,-0.002,-0.002,0.0
1.0,0.82769996,-0.51410002,-0.1908,-0.11849999,0.001,-0.001,0.0
1.0,0.82769996,-0.51410002,-0.1908,-0.11849999,0.001,-0.001,0.0
1.0,0.82769996,-0.514,-0.1908,-0.11849999,0.0,-0.002,0.001
1.0,0.82769996,-0.51410002,-0.1908,-0.11849999,-0.001,-0.003,0.002
1.0,0.82769996,-0.51410002,-0.1908,-0.11849999,-0.001,-0.001,0.002
1.0,0.82769996,-0.51410002,-0.1908,-0.1184,0.0,-0.002,0.0
1.0,0.82769996,-0.51419997,-0.1908,-0.1184,0.0,0.0,0.0
1.0,0.82769996,-0.51419997,-0.1908,-0.1184,0.0,-0.001,-0.001
1.0,0.82769996,-0.51419997,-0.1908,-0.1183,0.001,0.0,-0.001
1.0,0.82769996,-0.51419997,-0.1908,-0.1183,0.0,-0.001,0.0
1.0,0.82769996,-0.51419997,-0.1908,-0.1182,0.0,-0.002,0.0
1.0,0.82769996,-0.51419997,-0.1908,-0.1182,0.002,0.0,0.0
1.0,0.82769996,-0.51419997,-0.1908,-0.1182,0.001,-0.002,0.0
1.0,0.82769996,-0.51419997,-0.1908,-0.11809999,-0.001,-0.001,0.001
1.0,0.82769996,-0.51419997,-0.1908,-0.118,-0.001,-0.002,0.002
1.0,0.82769996,-0.51419997,-0.1908,-0.118,0.0,-0.001,0.001
1.0,0.82769996,-0.51419997,-0.1908,-0.1179,0.0,-0.001,-0.001
1.0,0.82769996,-0.51419997,-0.1908,-0.1179,0.001,-0.001,0.0
1.0,0.82769996,-0.51419997,-0.1909,-0.1179,-0.002,-0.001,0.001
1.0,0.82769996,-0.51419997,-0.1909,-0.1178,-0.002,-0.001,0.001
1.0,0.82769996,-0.51419997,-0.1909,-0.1178,0.0,-0.002,0.0
1.0,0.82769996,-0.51419997,-0.1909,-0.1178,0.0,-0.002,0.001
1.0,0.82769996,-0.51419997,-0.1909,-0.1178,0.0,-0.002,0.0
1.0,0.82769996,-0.51419997,-0.1908,-0.1177,0.001,0.0,0.0
1.0,0.82769996,-0.51429999,-0.1908,-0.1177,0.003,-0.001,0.0
1.0,0.82769996,-0.51429999,-0.1908,-0.1177,0.003,0.0,0.0
1.0,0.82769996,-0.51419997,-0.1908,-0.1177,-0.003,-0.002,0.002
1.0,0.82779998,-0.51419997,-0.1909,-0.1177,-0.004,-0.001,0.002
1.0,0.82779998,-0.51419997,-0.1909,-0.1177,0.0,-0.001,0.0
1.0,0.82779998,-0.51410002,-0.1909,-0.1177,-0.001,-0.001,0.001
1.0,0.82779998,-0.51410002,-0.1909,-0.1177,0.0,-0.001,0.0
1.0,0.82779998,-0.51410002,-0.1909,-0.1177,0.002,-0.001,0.0
1.0,0.82779998,-0.51410002,-0.1908,-0.1177,0.005,0.0,0.0
1.0,0.82779998,-0.51410002,-0.1908,-0.1177,0.004,0.0,0.0
1.0,0.82779998,-0.51410002,-0.1908,-0.11759999,0.0,-0.002,0.0
1.0,0.82779998,-0.51410002,-0.1908,-0.11759999,-0.002,-0.001,0.001
1.0,0.82789999,-0.514,-0.1908,-0.11759999,-0.002,-0.002,0.0
1.0,0.82789999,-0.514,-0.1909,-0.11759999,-0.001,-0.002,0.0
1.0,0.82789999,-0.514,-0.1909,-0.11759999,0.0,-0.001,0.0
1.0,0.82789999,-0.514,-0.1908,-0.1175,0.0,-0.001,0.001
1.0,0.82789999,-0.514,-0.1908,-0.1175,0.0,-0.001,0.0
1.0,0.82789999,-0.51389998,-0.1908,-0.11759999,0.001,-0.002,0.002
1.0,0.82799995,-0.51389998,-0.1908,-0.11759999,0.002,-0.001,0.001
1.0,0.82799995,-0.51389998,-0.1908,-0.1175,0.003,-0.001,0.0
1.0,0.82799995,-0.51389998,-0.1908,-0.1175,0.001,-0.002,0.0
1.0,0.82799995,-0.51389998,-0.1908,-0.1174,0.0,-0.002,0.0
1.0,0.82799995,-0.51389998,-0.1908,-0.1174,0.001,-0.002,0.0
1.0,0.82799995,-0.51379997,-0.1908,-0.1173,0.0,-0.003,0.001
1.0,0.82799995,-0.51379997,-0.1908,-0.1173,-0.003,-0.001,0.0
1.0,0.82809997,-0.51379997,-0.1909,-0.11719999,-0.002,-0.001,0.0
1.0,0.82809997,-0.51379997,-0.1909,-0.11719999,0.0,-0.001,0.0
1.0,0.82809997,-0.51379997,-0.1909,-0.11719999,0.0,-0.002,0.0
1.0,0.82809997,-0.51379997,-0.1908,-0.11719999,0.002,-0.002,0.0
1.0,0.82809997,-0.51370001,-0.1909,-0.1171,0.001,-0.001,0.0
1.0,0.82809997,-0.51370001,-0.1909,-0.1171,0.0,-0.002,0.001
1.0,0.82809997,-0.51370001,-0.1909,-0.1171,0.001,-0.001,0.001
1.0,0.82819998,-0.51359999,-0.1909,-0.117,-0.002,-0.002,0.001
1.0,0.82819998,-0.51359999,-0.191,-0.117,-0.002,-0.001,0.001
1.0,0.82819998,-0.51359999,-0.1909,-0.1169,0.003,-0.001,-0.001
1.0,0.82819998,-0.51359999,-0.191,-0.1168,0.0,-0.002,0.002
1.0,0.8283,-0.51349998,-0.191,-0.1168,0.002,-0.001,0.002
1.0,0.8283,-0.51349998,-0.191,-0.11669999,0.007,0.0,-0.002
1.0,0.8283,-0.51349998,-0.1911,-0.1166,0.0,-0.001,0.002
1.0,0.8283,-0.51339996,-0.19119999,-0.1165,-0.009,-0.002,0.002
1.0,0.8283,-0.51339996,-0.19119999,-0.1164,0.0,-0.002,0.0
1.0,0.8283,-0.51339996,-0.19129999,-0.1164,0.0,-0.001,0.001
1.0,0.82839996,-0.51339996,-0.19129999,-0.11629999,-0.002,0.0,0.0
1.0,0.82839996,-0.5133,-0.19129999,-0.1162,0.0,0.0,0.0
1.0,0.82839996,-0.5133,-0.19119999,-0.116,0.005,0.0,-0.001
1.0,0.82849997,-0.5133,-0.19119999,-0.11589999,0.005,0.0,-0.001
1.0,0.82849997,-0.51319999,-0.19129999,-0.1158,0.008,0.0,-0.002
1.0,0.82859999,-0.51309997,-0.19129999,-0.1156,0.003,0.001,0.0
1.0,0.82870001,-0.51300001,-0.19139999,-0.11539999,0.004,0.001,0.0
1.0,0.82879996,-0.51289999,-0.19139999,-0.1152,0.008,0.003,-0.001
1.0,0.82889998,-0.51269996,-0.19139999,-0.1149,0.003,0.002,-0.002
1.0,0.82909995,-0.5126,-0.19139999,-0.1146,0.001,0.002,-0.002
1.0,0.82929999,-0.51239997,-0.19119999,-0.1143,-0.004,0.0,-0.001
1.0,0.82949996,-0.5122,-0.1911,-0.1139,0.008,0.0,0.0
1.0,0.82969999,-0.51190001,-0.191,-0.1134,0.007,0.001,-0.001
1.0,0.82999998,-0.51159996,-0.191,-0.1129,0.003,0.001,-0.003
1.0,0.83029997,-0.51129997,-0.1908,-0.11229999,0.013,0.003,-0.004
1.0,0.83059996,-0.51089996,-0.1908,-0.1116,0.01,0.0,-0.002
1.0,0.83099997,-0.5104,-0.1909,-0.1109,0.042,0.009,-0.015
1.0,0.83139998,-0.50980002,-0.1911,-0.1102,0.01,0.004,-0.002
1.0,0.83179998,-0.50919998,-0.19139999,-0.1096,-0.01,-0.003,0.009
1.0,0.83219999,-0.50870001,-0.19149999,-0.1089,-0.016,-0.002,0.009
1.0,0.83249998,-0.50830001,-0.19149999,-0.1081,-0.008,0.0,0.007
1.0,0.83289999,-0.50779998,-0.19149999,-0.10749999,-0.014,-0.002,0.002
1.0,0.83329999,-0.50739998,-0.19139999,-0.1069,-0.024,0.001,0.002
1.0,0.83359998,-0.50699997,-0.19129999,-0.1064,-0.022,0.0,-0.004
1.0,0.83399999,-0.50659996,-0.1911,-0.106,-0.016,0.0,0.0
1.0,0.83429998,-0.5061,-0.1909,-0.10569999,-0.013,-0.002,0.002
1.0,0.83459997,-0.50569999,-0.19059999,-0.10529999,-0.005,-0.001,0.001
1.0,0.83499998,-0.50529999,-0.19029999,-0.105,-0.003,0.001,0.001
1.0,0.83529997,-0.50489998,-0.1901,-0.1046,-0.01,-0.002,0.014
1.0,0.83569998,-0.50440001,-0.19,-0.10439999,0.019,0.004,0.005
1.0,0.83599997,-0.50400001,-0.1899,-0.1039,0.002,0.002,-0.006
1.0,0.83639997,-0.5036,-0.18969999,-0.1034,0.02,-0.001,0.002
1.0,0.83679998,-0.50309998,-0.18969999,-0.1028,0.017,-0.001,0.003
1.0,0.83719999,-0.50260001,-0.18969999,-0.1021,0.021,-0.005,-0.002
1.0,0.83749998,-0.50199997,-0.18979999,-0.1013,0.035,-0.001,-0.011
1.0,0.83789998,-0.50150001,-0.1901,-0.1006,0.033,0.006,-0.017
1.0,0.83829999,-0.50089997,-0.19029999,-0.0998,0.012,0.0,-0.001
1.0,0.8387,-0.50029999,-0.19059999,-0.0989,-0.003,-0.01,0.011
1.0,0.8391,-0.4998,-0.1908,-0.098,-0.011,-0.014,0.009
1.0,0.83939999,-0.49929997,-0.191,-0.097,-0.003,-0.018,0.008
1.0,0.8398,-0.49879998,-0.19119999,-0.096,-0.003,-0.017,0.014
1.0,0.84020001,-0.49829999,-0.19139999,-0.0949,-0.003,-0.004,0.005
1.0,0.8405,-0.49779999,-0.19159999,-0.0938,-0.005,0.0,0.0
1.0,0.8409,-0.4973,-0.1918,-0.0927,-0.007,0.002,-0.001
1.0,0.84129995,-0.49679998,-0.1919,-0.0916,-0.003,0.005,0.002
1.0,0.84179997,-0.4962,-0.19209999,-0.0905,0.0,0.003,0.0
1.0,0.84219998,-0.4955,-0.19229999,-0.0893,0.002,0.004,0.001
1.0,0.8427,-0.4948,-0.1926,-0.0881,-0.004,0.013,0.0
1.0,0.84319997,-0.49409997,-0.1929,-0.0869,0.006,0.015,0.003
1.0,0.84369999,-0.49329999,-0.19319999,-0.0857,0.012,0.009,0.014
1.0,0.84419996,-0.49249998,-0.1936,-0.0843,0.012,0.007,0.018
1.0,0.84469998,-0.49159998,-0.19409999,-0.0829,0.011,0.007,0.01
1.0,0.84529996,-0.49069998,-0.19479999,-0.0814,0.017,0.016,0.021
1.0,0.8459,-0.48959997,-0.1954,-0.07979999,0.01,0.016,0.024
1.0,0.8466,-0.48839998,-0.19599999,-0.0781,-0.002,0.025,0.007
1.0,0.84739995,-0.48709998,-0.19659999,-0.0765,0.013,0.028,0.001
1.0,0.84819996,-0.48569998,-0.1973,-0.0749,0.013,0.03,0.012
1.0,0.84909999,-0.48409998,-0.1981,-0.07319999,0.001,0.03,0.021
1.0,0.85009998,-0.48229998,-0.1987,-0.0716,-0.011,0.038,0.013
1.0,0.85119998,-0.4804,-0.19919999,-0.0698,-0.021,0.01,0.01
1.0,0.8524,-0.47839999,-0.1996,-0.0681,-0.017,0.101,0.035
1.0,0.85359997,-0.4761,-0.20019999,-0.0665,-0.025,0.097,0.075
1.0,0.85499996,-0.4736,-0.20089999,-0.0649,-0.032,0.10300001,0.09200001
1.0,0.85639995,-0.47079998,-0.20189999,-0.0636,0.032,0.11100001,0.058
1.0,0.85780001,-0.46769997,-0.2032,-0.0626,0.047,0.12,0.067
1.0,0.85929996,-0.46429998,-0.2049,-0.0619,0.056,0.13000001,0.1
1.0,0.86089998,-0.46039999,-0.20729999,-0.0616,0.096,0.14400001,0.098
1.0,0.86229998,-0.45619997,-0.2105,-0.0615,-0.041,0.10200001,0.11100001
1.0,0.86390001,-0.4513,-0.2149,-0.0613,-0.19900002,0.10200001,0.134
1.0,0.86549997,-0.44579998,-0.2199,-0.0609,-0.19900002,0.11800001,0.12100001
1.0,0.86719996,-0.4402,-0.22459999,-0.0603,-0.127,0.096,0.046
1.0,0.8689,-0.43419999,-0.2298,-0.0591,-0.19000001,0.11000001,0.004
1.0,0.87059999,-0.42809999,-0.2351,-0.0575,-0.30700001,0.035,0.041
1.0,0.87219995,-0.4219,-0.24089999,-0.0557,-0.11800001,0.081,-0.11000001
1.0,0.87349999,-0.41529998,-0.24769999,-0.054,-0.12,0.083,-0.094
1.0,0.87479997,-0.4086,-0.25490001,-0.052,-0.15900001,0.07700001,-0.025
1.0,0.8761,-0.40179998,-0.26159999,-0.0495,-0.18800001,0.1,0.009
1.0,0.87759995,-0.39489999,-0.2674,-0.0463,-0.20900001,0.11100001,0.013
1.0,0.8793,-0.38789999,-0.27269998,-0.0425,-0.22200002,0.115,0.0
1.0,0.8811,-0.38079998,-0.2775,-0.0379,-0.22700001,0.1,0.0
1.0,0.88299996,-0.37349999,-0.28219998,-0.0329,-0.23600002,0.094,0.014
1.0,0.8847,-0.366,-0.287,-0.0273,-0.24700001,0.085,0.026
1.0,0.88629997,-0.3581,-0.29260001,-0.0213,-0.22500001,0.09,0.03
1.0,0.88769996,-0.34979999,-0.29879999,-0.0151,-0.21600001,0.09100001,0.041
1.0,0.88889998,-0.34129998,-0.30519998,-0.0083,-0.24700001,0.11800001,0.062
1.0,0.8901,-0.33239999,-0.31149998,-0.0012,-0.19500001,0.13700001,0.068
1.0,0.89120001,-0.32339999,-0.31779999,0.006,-0.18200001,0.132,0.071
1.0,0.89249998,-0.3141,-0.32319999,0.0137,-0.20400001,0.14,0.072
1.0,0.89399999,-0.30469999,-0.32749999,0.0219,-0.18800001,0.12800001,0.07700001
1.0,0.89569998,-0.2951,-0.331,0.0305,-0.17900001,0.13800001,0.085
1.0,0.89739996,-0.28529999,-0.3339,0.0393,-0.15400001,0.142,0.089
1.0,0.89929998,-0.27519998,-0.33629999,0.0483,-0.11000001,0.127,0.096
1.0,0.90109998,-0.2649,-0.33829999,0.0574,-0.08400001,0.11100001,0.10300001
1.0,0.90279996,-0.2543,-0.34,0.0665,-0.09200001,0.10700001,0.119
1.0,0.90449995,-0.24349999,-0.34169999,0.0756,-0.079,0.125,0.108
1.0,0.9059,-0.2324,-0.3436,0.0847,-0.052,0.09900001,0.10200001
1.0,0.90719998,-0.22119999,-0.345,0.0937,-0.06,0.09,0.083
1.0,0.90849996,-0.20999999,-0.34619999,0.1027,-0.021,0.09900001,0.063
1.0,0.90969998,-0.1987,-0.34689999,0.1117,-0.048,0.096,0.053
1.0,0.91069996,-0.1875,-0.34739998,0.12069999,-0.011,0.10200001,0.026
1.0,0.91169995,-0.17629999,-0.34759998,0.1296,0.018,0.081,0.005
1.0,0.91249996,-0.1654,-0.34739998,0.13849999,0.06,0.062,-0.034
1.0,0.91329998,-0.15459999,-0.3466,0.14739999,0.12200001,0.04,-0.07300001
1.0,0.91409999,-0.1441,-0.34529999,0.156,0.16800001,0.015,-0.09
1.0,0.9149,-0.134,-0.3432,0.1645,0.16700001,0.008,-0.071
1.0,0.91569996,-0.12419999,-0.34079999,0.1727,0.22800002,0.021,-0.09
1.0,0.91639996,-0.1149,-0.33809999,0.1806,0.26100001,-0.02,-0.085
1.0,0.91729999,-0.106,-0.3344,0.1882,0.177,0.01,-0.083
1.0,0.91799998,-0.0975,-0.33069998,0.1954,0.27700001,0.009,-0.13600001
1.0,0.91869998,-0.0897,-0.32699999,0.2023,0.31500003,-0.048,-0.18000001
1.0,0.91929996,-0.0825,-0.3231,0.2086,0.34,-0.056,-0.23
1.0,0.9199,-0.0759,-0.31919998,0.2145,0.38600001,-0.07,-0.25
1.0,0.92049998,-0.07,-0.3152,0.2199,0.354,-0.061,-0.23900001
1.0,0.92089999,-0.065,-0.31129998,0.22489999,0.37200001,-0.045,-0.25
1.0,0.92129999,-0.0607,-0.30769998,0.2295,0.38000003,-0.059,-0.252
1.0,0.92159998,-0.0572,-0.3044,0.23359999,0.33700001,-0.052,-0.23800001
1.0,0.92179996,-0.0545,-0.30140001,0.23729999,0.30800003,-0.038,-0.223
1.0,0.92189997,-0.0524,-0.29889998,0.24059999,0.27000001,-0.032,-0.208
1.0,0.92179996,-0.0511,-0.29699999,0.24339999,0.23900001,-0.033,-0.193
1.0,0.9217,-0.0503,-0.29530001,0.24599999,0.20100001,-0.017,-0.163
1.0,0.92159998,-0.05,-0.2938,0.2483,0.19100001,-0.006,-0.15700001
1.0,0.92139995,-0.0502,-0.29269999,0.25040001,0.177,-0.014,-0.14600001
1.0,0.92109996,-0.0507,-0.29189998,0.25220001,0.18800001,-0.007,-0.155
1.0,0.92089999,-0.0517,-0.29119998,0.25369999,0.18800001,-0.02,-0.171
1.0,0.9206,-0.053,-0.29049999,0.25509998,0.15900001,-0.029,-0.171
1.0,0.92039996,-0.0546,-0.2897,0.25639999,0.10700001,-0.026,-0.14300001
1.0,0.92029995,-0.0565,-0.2886,0.2577,0.064,-0.008,-0.10600001
1.0,0.92009997,-0.0586,-0.2877,0.259,0.064,-0.008,-0.086
1.0,0.91979998,-0.0608,-0.28689998,0.26029998,0.055,-0.019,-0.066
1.0,0.91949999,-0.0633,-0.2861,0.26159999,0.034,-0.02,-0.06
1.0,0.9192,-0.0661,-0.28529999,0.26299998,0.028,-0.035,-0.075
1.0,0.91869998,-0.0692,-0.28470001,0.2647,0.02,-0.039,-0.09900001
1.0,0.91779995,-0.073,-0.28479999,0.2667,0.026,-0.037,-0.10700001
1.0,0.91649997,-0.0774,-0.2854,0.2692,0.006,-0.04,-0.09500001
1.0,0.9149,-0.0823,-0.28650001,0.2721,-0.002,-0.05,-0.09900001
1.0,0.91279995,-0.0881,-0.2881,0.2755,0.013,-0.071,-0.12100001
1.0,0.91029996,-0.0947,-0.29009998,0.2793,0.006,-0.097,-0.16100001
1.0,0.90739995,-0.10219999,-0.29249999,0.28380001,0.011,-0.13600001,-0.20400001
1.0,0.90379995,-0.1109,-0.29519999,0.28909999,0.006,-0.14400001,-0.21800001
1.0,0.89969999,-0.12069999,-0.29789999,0.2951,-0.025,-0.123,-0.19400001
1.0,0.8951,-0.13159999,-0.3003,0.3019,-0.057,-0.089,-0.149
1.0,0.89019996,-0.1433,-0.30199999,0.30919999,-0.06,-0.05,-0.072
1.0,0.88529998,-0.15549999,-0.30249998,0.31689999,-0.062,-0.017,-0.003
1.0,0.88069999,-0.168,-0.30059999,0.3251,-0.10300001,-0.009,0.018
1.0,0.87619996,-0.1806,-0.29679999,0.3337,-0.09900001,0.004,-0.013
1.0,0.87180001,-0.19329999,-0.29159999,0.3427,-0.079,-0.001,-0.083
1.0,0.8671,-0.20629999,-0.2852,0.3522,-0.09100001,-0.003,-0.15700001
1.0,0.86199999,-0.21959999,-0.27809998,0.36219999,-0.11800001,0.002,-0.19900002
1.0,0.8563,-0.2333,-0.27079999,0.3725,-0.10600001,0.013,-0.22800002
1.0,0.84979999,-0.24759999,-0.264,0.3829,-0.062,0.019,-0.22700001
1.0,0.84249997,-0.26249999,-0.2579,0.39319998,-0.031,0.027,-0.2
1.0,0.83419997,-0.2782,-0.25279999,0.4032,-0.04,0.04,-0.178
1.0,0.82519996,-0.29459998,-0.24849999,0.41279998,-0.051,0.049,-0.164
1.0,0.81529999,-0.3116,-0.24499999,0.4219,-0.041,0.06,-0.16600001
1.0,0.80469996,-0.3292,-0.24239999,0.4303,-0.052,0.075,-0.17600001
1.0,0.79350001,-0.34719998,-0.24049999,0.43799999,-0.063,0.074,-0.185
1.0,0.7816,-0.36559999,-0.23899999,0.44509998,-0.061,0.086,-0.19700001
1.0,0.76909995,-0.3845,-0.2383,0.45139998,-0.06900001,0.09100001,-0.20900001
1.0,0.7561,-0.40349999,-0.23789999,0.4569,-0.075,0.098,-0.19800001
1.0,0.7428,-0.42249998,-0.2374,0.46169999,-0.071,0.105,-0.17400001
1.0,0.7295,-0.44119999,-0.2366,0.46589997,-0.079,0.112,-0.14300001
1.0,0.71609998,-0.4596,-0.23549999,0.46939999,-0.068,0.115,-0.115
1.0,0.70279998,-0.47739998,-0.234,0.4725,-0.062,0.123,-0.083
1.0,0.68970001,-0.49439999,-0.23199999,0.47529998,-0.06,0.141,-0.054
1.0,0.67689997,-0.51069999,-0.22939999,0.4777,-0.048,0.15000001,-0.011
1.0,0.6645,-0.52590001,-0.2263,0.47999999,-0.034,0.15400001,0.03
1.0,0.65279996,-0.53999996,-0.22239999,0.48229998,-0.029,0.156,0.068
1.0,0.64160001,-0.5528,-0.21799999,0.48479998,-0.036,0.15100001,0.11000001
1.0,0.63150001,-0.56379998,-0.2128,0.48769999,-0.055,0.156,0.149
1.0,0.62220001,-0.57339996,-0.20709999,0.49089998,-0.047,0.15800001,0.16600001
1.0,0.61379999,-0.58139998,-0.20119999,0.4946,-0.058,0.15200001,0.18900001
1.0,0.60649997,-0.58770001,-0.1953,0.49849999,-0.051,0.16500001,0.19700001
1.0,0.60009998,-0.59249997,-0.18949999,0.50260001,-0.042,0.15400001,0.20100001
1.0,0.59499997,-0.59579998,-0.1839,0.50699997,-0.054,0.148,0.20700002
1.0,0.5909,-0.59749997,-0.1785,0.51159996,-0.043,0.156,0.208
1.0,0.58770001,-0.59819996,-0.17359999,0.51620001,-0.014,0.15200001,0.19400001
1.0,0.5855,-0.59779996,-0.16939999,0.52039999,0.024,0.13000001,0.16500001
1.0,0.58410001,-0.59689999,-0.1663,0.52410001,0.056,0.108,0.13900001
1.0,0.58319998,-0.59569997,-0.16419999,0.52719998,0.078,0.093,0.12200001
1.0,0.58289999,-0.59439999,-0.16329999,0.52919996,0.104,0.08000001,0.11300001
1.0,0.583,-0.59319997,-0.16339999,0.53039998,0.101,0.07700001,0.108
1.0,0.58359998,-0.59189999,-0.1644,0.5309,0.101,0.07,0.10200001
1.0,0.58450001,-0.59060001,-0.1661,0.53079998,0.097,0.067,0.093
1.0,0.58590001,-0.58919996,-0.1682,0.5302,0.09500001,0.055,0.081
1.0,0.58749998,-0.58770001,-0.1706,0.52939999,0.083,0.052,0.067
1.0,0.58939999,-0.58599997,-0.1732,0.52819997,0.07600001,0.045,0.051
1.0,0.59149998,-0.58429998,-0.1758,0.52689999,0.06900001,0.034,0.035
1.0,0.59369999,-0.58249998,-0.1785,0.5255,0.036,0.02,0.021
1.0,0.59599996,-0.58050001,-0.18099999,0.52419996,0.007,0.017,0.02
1.0,0.5984,-0.57849997,-0.18349999,0.52279997,-0.002,0.015,0.024
1.0,0.60079998,-0.57639998,-0.1859,0.52149999,-0.017,0.008,0.035
1.0,0.60329998,-0.57429999,-0.1882,0.52029997,-0.023,0.017,0.045
1.0,0.60569996,-0.57199997,-0.19039999,0.51910001,-0.025,0.02,0.058
1.0,0.6081,-0.5697,-0.19239999,0.51809996,-0.024,0.012,0.066
1.0,0.61049998,-0.56720001,-0.1943,0.51730001,-0.024,0.011,0.06500001
1.0,0.61289996,-0.56459999,-0.19579999,0.51669997,-0.019,0.004,0.059
1.0,0.61539996,-0.56169999,-0.197,0.51639998,-0.006,0.003,0.062
1.0,0.61809999,-0.55849999,-0.1978,0.51639998,0.009,0.006,0.074
1.0,0.62110001,-0.55500001,-0.1982,0.5165,0.017,0.017,0.082
1.0,0.62449998,-0.55089998,-0.19839999,0.51669997,0.051,0.012,0.09200001
1.0,0.62830001,-0.54629999,-0.1982,0.51709998,0.064,0.011,0.08400001
1.0,0.63269997,-0.54109997,-0.1979,0.51730001,0.072,0.002,0.067
1.0,0.6376,-0.53539997,-0.1978,0.51719999,0.097,-0.003,0.047
1.0,0.64279997,-0.52950001,-0.198,0.51669997,0.10700001,-0.008,0.043
1.0,0.64859998,-0.52319998,-0.1988,0.51569998,0.13000001,0.014,0.067
1.0,0.6548,-0.51660001,-0.20019999,0.51389998,0.13800001,0.043,0.10700001
1.0,0.66149998,-0.5097,-0.2022,0.51139998,0.12100001,0.075,0.142
1.0,0.6688,-0.50229996,-0.2051,0.50809997,0.12,0.105,0.15200001
1.0,0.67659998,-0.49439999,-0.20879999,0.50389999,0.125,0.11700001,0.13700001
1.0,0.68489999,-0.48609999,-0.21329999,0.4989,0.12,0.126,0.105
1.0,0.69369996,-0.47729999,-0.21859999,0.49289998,0.11400001,0.13800001,0.078
1.0,0.70279998,-0.46799999,-0.2245,0.48629999,0.12,0.155,0.082
1.0,0.71239996,-0.45799997,-0.2306,0.47889999,0.123,0.17600001,0.11400001
1.0,0.72259998,-0.44709998,-0.2366,0.47099999,0.1,0.19800001,0.123
1.0,0.73339999,-0.43519998,-0.2419,0.46259999,0.098,0.21700001,0.115
1.0,0.745,-0.42219999,-0.2463,0.45369998,0.09200001,0.22800002,0.082
1.0,0.75729996,-0.4082,-0.2498,0.44409999,0.08000001,0.23500001,0.049
1.0,0.7701,-0.39339998,-0.25229999,0.43399999,0.068,0.24600001,0.002
1.0,0.7834,-0.3779,-0.25369999,0.42289999,0.086,0.245,-0.043
1.0,0.79699999,-0.3619,-0.2545,0.4109,0.1,0.25600001,-0.09200001
1.0,0.8107,-0.34579998,-0.25479999,0.39769998,0.067,0.24800001,-0.13700001
1.0,0.82419997,-0.32969999,-0.255,0.3831,0.052,0.27200001,-0.18300001
1.0,0.8373,-0.31389999,-0.25560001,0.36719999,0.058,0.27200001,-0.23200001
1.0,0.84979999,-0.2987,-0.25689998,0.34999999,0.062,0.26700002,-0.26900002
1.0,0.86129999,-0.2843,-0.2597,0.33139998,0.061,0.27000001,-0.30800003
1.0,0.87159997,-0.27070001,-0.264,0.31169999,0.067,0.257,-0.354
1.0,0.88049996,-0.25819999,-0.2705,0.2911,0.051,0.22900002,-0.39100003
1.0,0.88769996,-0.24689999,-0.27939999,0.26969999,0.034,0.21300001,-0.42400002
1.0,0.89319998,-0.2367,-0.2906,0.248,0.041,0.18700001,-0.45400003
1.0,0.8969,-0.22749999,-0.30410001,0.2263,0.025,0.15700001,-0.46100003
1.0,0.89859998,-0.21939999,-0.3197,0.20469999,0.03,0.142,-0.46100003
1.0,0.8987,-0.21239999,-0.3369,0.18339999,0.057,0.10700001,-0.45600003
1.0,0.89679998,-0.20639999,-0.3556,0.1629,0.025,0.083,-0.44000003
1.0,0.89339995,-0.2014,-0.375,0.1433,0.025,0.06500001,-0.42100003
1.0,0.88859999,-0.19739999,-0.39469999,0.12459999,0.046,0.032,-0.39600003
1.0,0.88259995,-0.1946,-0.41419998,0.1072,0.035,0.007,-0.34300002
1.0,0.87579995,-0.19299999,-0.43269998,0.09119999,-0.018,0.018,-0.27500001
1.0,0.86859995,-0.1927,-0.4499,0.07669999,-0.012,0.021,-0.22100002
1.0,0.86089998,-0.19389999,-0.46589997,0.0637,0.026,0.005,-0.18000001
1.0,0.8531,-0.1964,-0.48049998,0.052,0.022,0.015,-0.13800001
1.0,0.84549999,-0.20029999,-0.493,0.042,0.009,0.044,-0.079
1.0,0.83849996,-0.20539999,-0.50339997,0.0332,-0.022,0.081,-0.017
1.0,0.83230001,-0.21159999,-0.51159996,0.0256,-0.075,0.12,0.022
1.0,0.82729995,-0.21869999,-0.5169,0.0195,-0.13900001,0.16700001,0.037
1.0,0.82319999,-0.22639999,-0.52020001,0.0145,-0.16600001,0.18200001,0.033
1.0,0.81999999,-0.23459999,-0.52179998,0.0104,-0.18800001,0.19000001,0.017
1.0,0.8179,-0.24309999,-0.5212,0.0075,-0.24100001,0.19000001,0.025
1.0,0.81689996,-0.25169998,-0.51879996,0.0055,-0.296,0.192,0.046
1.0,0.81689996,-0.26029998,-0.51449996,0.0044,-0.33000001,0.19700001,0.07
1.0,0.8179,-0.2687,-0.50870001,0.004,-0.347,0.20500001,0.081
1.0,0.8193,-0.27669999,-0.50189996,0.0042,-0.33700001,0.18800001,0.06
1.0,0.8211,-0.2843,-0.4948,0.0048,-0.28300002,0.147,0.018
1.0,0.82279998,-0.2913,-0.4878,0.0056,-0.22800002,0.10600001,-0.032
1.0,0.82409996,-0.29789999,-0.48159999,0.0064,-0.18100001,0.07,-0.07700001
1.0,0.82489997,-0.30399999,-0.47649997,0.0071,-0.13900001,0.039,-0.12800001
1.0,0.8247,-0.3096,-0.47309998,0.0074,-0.09900001,0.01,-0.164
1.0,0.82379997,-0.31489998,-0.47119999,0.0074,-0.085,-0.015,-0.178
1.0,0.82209998,-0.31999999,-0.4707,0.0071,-0.072,-0.023,-0.16500001
1.0,0.81989998,-0.3249,-0.4711,0.0064,-0.051,-0.011,-0.141
1.0,0.81739998,-0.3299,-0.47209999,0.0054,-0.034,-0.012,-0.126
1.0,0.81459999,-0.33469999,-0.47349998,0.0041,-0.024,-0.023,-0.12400001
1.0,0.8118,-0.33949998,-0.47479999,0.0026,-0.019,-0.039,-0.127
1.0,0.80909997,-0.3443,-0.47599998,0.0011,-0.017,-0.053,-0.134
1.0,0.80649996,-0.34919998,-0.47689998,-0.0005,-0.02,-0.067,-0.13600001
1.0,0.80399996,-0.354,-0.47749999,-0.0021,-0.026,-0.071,-0.14
1.0,0.80159998,-0.35889998,-0.4779,-0.0038,-0.027,-0.07700001,-0.141
1.0,0.79929996,-0.36379999,-0.4781,-0.0055,-0.025,-0.07700001,-0.14
1.0,0.79699999,-0.36879998,-0.47819999,-0.0072,-0.024,-0.082,-0.133
1.0,0.79469997,-0.37379998,-0.4781,-0.0088,-0.027,-0.085,-0.116
1.0,0.7924,-0.3788,-0.4779,-0.0104,-0.029,-0.082,-0.089
1.0,0.79009998,-0.38389999,-0.47749999,-0.012,-0.031,-0.07300001,-0.06
1.0,0.78799999,-0.38909999,-0.47679999,-0.0135,-0.015,-0.07300001,-0.042
1.0,0.7859,-0.39429998,-0.47579998,-0.015,0.008,-0.08000001,-0.032
1.0,0.78399998,-0.39969999,-0.47439998,-0.0165,0.024,-0.085,-0.009
1.0,0.78249997,-0.4052,-0.47219998,-0.0176,-0.034,-0.06500001,0.018
1.0,0.78139997,-0.4109,-0.4691,-0.0183,-0.07600001,-0.037,0.031
1.0,0.78059995,-0.41679999,-0.46519998,-0.0187,-0.09200001,-0.022,0.042
1.0,0.78029996,-0.42269999,-0.46039999,-0.0185,-0.094,-0.015,0.045
1.0,0.7802,-0.42879999,-0.45479998,-0.0179,-0.082,-0.019,0.04
1.0,0.78039998,-0.435,-0.44859999,-0.0169,-0.058,-0.017,0.036
1.0,0.78069997,-0.44129997,-0.442,-0.0155,-0.05,-0.011,0.031
1.0,0.7809,-0.44759998,-0.43529999,-0.0139,-0.035,-0.004,0.027
1.0,0.78079998,-0.45379999,-0.42899999,-0.0121,-0.019,0.005,0.028
1.0,0.78049999,-0.45999998,-0.42309999,-0.0104,-0.021,0.013,0.037
1.0,0.7798,-0.46609998,-0.41769999,-0.0088,-0.028,0.019,0.054
1.0,0.77879995,-0.472,-0.4129,-0.0072,-0.042,0.035,0.07600001
1.0,0.77749997,-0.47779998,-0.40869999,-0.0056,-0.04,0.048,0.085
1.0,0.77579999,-0.4833,-0.40539998,-0.0044,-0.019,0.046,0.08400001
1.0,0.7737,-0.4887,-0.403,-0.0035,0.002,0.042,0.081
1.0,0.77129996,-0.4939,-0.4012,-0.0029,0.001,0.043,0.085
1.0,0.7687,-0.49899998,-0.39989999,-0.0024,0.001,0.044,0.09100001
1.0,0.76609999,-0.50400001,-0.3987,-0.002,0.0,0.044,0.101
1.0,0.76339996,-0.50889999,-0.39749998,-0.0016,-0.003,0.048,0.12200001
1.0,0.76099998,-0.51389998,-0.39579999,-0.0012,-0.009,0.054,0.13500001
1.0,0.75869995,-0.51879996,-0.39379999,-0.0006,-0.003,0.054,0.14
1.0,0.75659996,-0.52359998,-0.39139998,0.0,0.009,0.05,0.13700001
1.0,0.75470001,-0.52849996,-0.38850001,0.0006,0.023,0.042,0.125
1.0,0.75299996,-0.53329998,-0.38529998,0.0012,0.037,0.041,0.11400001
1.0,0.75150001,-0.53799999,-0.38159999,0.002,0.03,0.054,0.108
1.0,0.75019997,-0.54280001,-0.37739998,0.0028,0.04,0.056,0.108
1.0,0.74899995,-0.54750001,-0.37289998,0.0035,0.046,0.049,0.109
1.0,0.74799997,-0.55219996,-0.368,0.0043,0.056,0.046,0.112
1.0,0.7471,-0.55680001,-0.3628,0.0049,0.059,0.051,0.11800001
1.0,0.74619997,-0.56129998,-0.3576,0.0054,0.068,0.057,0.12100001
1.0,0.74549997,-0.56569999,-0.35229999,0.0055,0.082,0.059,0.125
1.0,0.74469995,-0.56989998,-0.347,0.0053,0.08000001,0.062,0.132
1.0,0.74399996,-0.574,-0.34169999,0.0048,0.07300001,0.07,0.133
1.0,0.74339998,-0.57779998,-0.33660001,0.0038,0.083,0.071,0.12400001
1.0,0.7428,-0.58139998,-0.33179998,0.0025,0.09100001,0.062,0.11400001
1.0,0.74219996,-0.58469999,-0.32729998,0.0006,0.09200001,0.051,0.10600001
1.0,0.74159998,-0.58770001,-0.32319999,-0.0017,0.07700001,0.048,0.105
1.0,0.741,-0.5905,-0.3195,-0.0045,0.062,0.051,0.10200001
1.0,0.74039996,-0.59299999,-0.31619999,-0.0078,0.058,0.044,0.094
1.0,0.73979998,-0.59509999,-0.31329998,-0.0116,0.053,0.041,0.08800001
1.0,0.73929995,-0.597,-0.3109,-0.0158,0.041,0.04,0.086
1.0,0.73869997,-0.59859997,-0.30879998,-0.0204,0.026,0.034,0.085
1.0,0.73829997,-0.59990001,-0.30689999,-0.0252,-0.007,0.036,0.09200001
1.0,0.73789996,-0.60100001,-0.30519998,-0.0302,-0.032,0.043,0.094
1.0,0.73769999,-0.60179996,-0.3037,-0.0354,-0.042,0.036,0.09100001
1.0,0.73749995,-0.60229999,-0.30249998,-0.0408,-0.055,0.031,0.08800001
1.0,0.7374,-0.6024,-0.3017,-0.0464,-0.06500001,0.029,0.081
1.0,0.73729998,-0.60229999,-0.30129999,-0.0522,-0.07600001,0.026,0.074
1.0,0.73719996,-0.60170001,-0.30140001,-0.0583,-0.086,0.021,0.066
1.0,0.73719996,-0.60089999,-0.3019,-0.0645,-0.09100001,0.018,0.059
1.0,0.73710001,-0.59969997,-0.30289999,-0.07099999,-0.097,0.013,0.055
1.0,0.73710001,-0.59819996,-0.3044,-0.07759999,-0.10200001,0.009,0.052
1.0,0.73699999,-0.59639996,-0.30629998,-0.0844,-0.11000001,0.01,0.046
1.0,0.73689997,-0.59439999,-0.30840001,-0.0914,-0.116,0.003,0.04
1.0,0.73689997,-0.59209996,-0.31059998,-0.0983,-0.12,-0.006,0.03
1.0,0.73689997,-0.58969998,-0.31299999,-0.1052,-0.12100001,-0.015,0.017
1.0,0.73699999,-0.58709997,-0.31529999,-0.1121,-0.12100001,-0.015,0.008
1.0,0.73710001,-0.58450001,-0.3175,-0.11889999,-0.123,-0.015,0.0
1.0,0.73729998,-0.58169997,-0.3195,-0.12549999,-0.126,-0.004,-0.008
1.0,0.73759997,-0.57889998,-0.32119998,-0.1319,-0.126,-0.004,-0.018
1.0,0.73799998,-0.57609999,-0.32269999,-0.1381,-0.125,-0.007,-0.031
1.0,0.73859996,-0.5733,-0.32389998,-0.14399999,-0.123,-0.006,-0.043
1.0,0.7392,-0.57049996,-0.3249,-0.1497,-0.12200001,-0.002,-0.056
1.0,0.74000001,-0.56760001,-0.32549998,-0.15519999,-0.119,-0.001,-0.06900001
1.0,0.74089998,-0.56479996,-0.32600001,-0.1603,-0.11400001,-0.005,-0.081
1.0,0.74180001,-0.56189996,-0.3263,-0.1653,-0.11100001,-0.002,-0.093
1.0,0.74289995,-0.5589,-0.3265,-0.1699,-0.10300001,-0.003,-0.104
1.0,0.74409997,-0.55589998,-0.3267,-0.1743,-0.094,-0.002,-0.104
1.0,0.74529999,-0.5528,-0.32690001,-0.1786,-0.089,0.009,-0.10200001
1.0,0.74659997,-0.54939997,-0.3272,-0.18279999,-0.083,0.02,-0.10700001
1.0,0.74799997,-0.54579997,-0.32780001,-0.18699999,-0.07700001,0.019,-0.11700001
1.0,0.74939996,-0.54189998,-0.32859999,-0.19119999,-0.074,0.017,-0.13700001
1.0,0.75079995,-0.5377,-0.3299,-0.1955,-0.061,0.013,-0.162
1.0,0.75199997,-0.53299999,-0.33199999,-0.20009999,-0.036,0.012,-0.18300001
1.0,0.7529,-0.52770001,-0.3353,-0.20529999,-0.004,0.016,-0.20100001
1.0,0.75329995,-0.52139997,-0.3405,-0.2113,0.011,0.014,-0.208
1.0,0.75319999,-0.51410002,-0.34729999,-0.2182,0.024,0.021,-0.20900001
1.0,0.7525,-0.50580001,-0.35599998,-0.22579999,0.014,0.023,-0.22200002
1.0,0.7511,-0.49649999,-0.3664,-0.2342,0.029,0.026,-0.24100001
1.0,0.74909997,-0.48609999,-0.3784,-0.24329999,0.049,0.027,-0.26300001
1.0,0.74610001,-0.4743,-0.39249998,-0.25319999,0.07,0.03,-0.30000001
1.0,0.74169999,-0.46069998,-0.40939999,-0.26429999,0.15700001,0.047,-0.32800001
1.0,0.73579997,-0.44529998,-0.4287,-0.27649999,0.14,0.023,-0.33600003
1.0,0.72850001,-0.4287,-0.44939998,-0.28869998,0.056,0.009,-0.33800003
1.0,0.72029996,-0.41169998,-0.47039998,-0.30050001,0.041,0.007,-0.33700001
1.0,0.71129996,-0.3944,-0.49109998,-0.3116,0.03,0.021,-0.31900001
1.0,0.70209998,-0.37709999,-0.51109999,-0.32159999,0.022,0.038,-0.29200003
1.0,0.69269997,-0.3603,-0.53009999,-0.33039999,0.025,0.061,-0.27400002
1.0,0.6832,-0.3439,-0.54809999,-0.3382,0.07600001,0.085,-0.252
1.0,0.67379999,-0.32799998,-0.565,-0.345,0.089,0.094,-0.21300001
1.0,0.66479999,-0.31309998,-0.58050001,-0.35049999,0.052,0.116,-0.17
1.0,0.65649998,-0.2992,-0.59439999,-0.3549,0.063,0.16000001,-0.17500001
1.0,0.6494,-0.28689998,-0.60640001,-0.35779998,0.047,0.15400001,-0.083
1.0,0.6433,-0.2762,-0.61680001,-0.35949999,0.057,0.17900001,-0.093
1.0,0.6383,-0.26699999,-0.62559998,-0.36019999,0.083,0.186,-0.06500001
1.0,0.63449997,-0.25959998,-0.63260001,-0.35999998,0.13900001,0.20200001,-0.036
1.0,0.63159996,-0.2534,-0.63839996,-0.35929999,0.19000001,0.192,-0.018
1.0,0.62970001,-0.2489,-0.64269996,-0.3581,0.22900002,0.16600001,0.003
1.0,0.62869996,-0.24569999,-0.64579999,-0.35659999,0.24200001,0.15400001,0.028
1.0,0.62869996,-0.24419999,-0.64739996,-0.35459998,0.24400002,0.13600001,0.07
1.0,0.63,-0.2447,-0.64719999,-0.35229999,0.23300001,0.12,0.12900001
1.0,0.63269997,-0.24679999,-0.64529997,-0.34959999,0.215,0.116,0.17300001
1.0,0.63690001,-0.2509,-0.64109999,-0.3466,0.192,0.09100001,0.20600002
1.0,0.64269996,-0.2572,-0.63459998,-0.34329998,0.20200001,0.07,0.20600002
1.0,0.64950001,-0.2649,-0.62639999,-0.33989999,0.24100001,0.057,0.192
1.0,0.65649998,-0.27359998,-0.61680001,-0.33679998,0.30400002,0.04,0.16000001
1.0,0.6631,-0.2827,-0.60689998,-0.33449998,0.37800002,0.022,0.123
1.0,0.66869998,-0.29170001,-0.59709996,-0.33309999,0.40100002,-0.004,0.1
1.0,0.67320001,-0.30089998,-0.58759999,-0.3328,0.39000002,-0.014,0.075
1.0,0.6767,-0.31020001,-0.57849997,-0.33329999,0.377,-0.007,0.063
1.0,0.67909998,-0.3197,-0.56959999,-0.33469999,0.34900001,0.002,0.07
1.0,0.68049997,-0.3294,-0.56089997,-0.3371,0.30500001,0.027,0.09500001
1.0,0.68099999,-0.33939999,-0.55229998,-0.34019998,0.27000001,0.039,0.116
1.0,0.68089998,-0.3497,-0.54369998,-0.3439,0.22400001,0.041,0.13600001
1.0,0.68019998,-0.36049998,-0.53479999,-0.34799999,0.17500001,0.05,0.149
1.0,0.67909998,-0.3716,-0.52569997,-0.3524,0.133,0.059,0.15200001
1.0,0.67759997,-0.38319999,-0.51620001,-0.35689998,0.089,0.061,0.15100001
1.0,0.67579997,-0.3953,-0.50629997,-0.36129999,0.053,0.059,0.14300001
1.0,0.67359996,-0.4077,-0.49609998,-0.36559999,0.024,0.055,0.13600001
1.0,0.67109996,-0.42039999,-0.48569998,-0.36969998,0.001,0.05,0.13500001
1.0,0.66829997,-0.4332,-0.47529998,-0.37369999,-0.011,0.048,0.13100001
1.0,0.66499996,-0.44599998,-0.46489999,-0.37739998,-0.026,0.048,0.127
1.0,0.6613,-0.4585,-0.45499998,-0.38119999,-0.038,0.048,0.12400001
1.0,0.65700001,-0.47049999,-0.4456,-0.3849,-0.056,0.054,0.12200001
1.0,0.6523,-0.48189998,-0.43689999,-0.3888,-0.074,0.068,0.12200001
1.0,0.64719999,-0.49229997,-0.42909998,-0.39309999,-0.096,0.075,0.12200001
1.0,0.64160001,-0.5018,-0.42219999,-0.39769998,-0.11700001,0.07700001,0.123
1.0,0.63559997,-0.51010001,-0.4163,-0.40279999,-0.14,0.078,0.11800001
1.0,0.6293,-0.51709998,-0.41169998,-0.40849999,-0.162,0.07600001,0.11400001
1.0,0.62279999,-0.52289999,-0.40809998,-0.4147,-0.18200001,0.067,0.11100001
1.0,0.61610001,-0.52709997,-0.4057,-0.42159998,-0.20400001,0.048,0.10700001
1.0,0.60929996,-0.53009999,-0.40439999,-0.42899999,-0.22400001,0.038,0.10200001
1.0,0.60249996,-0.53179997,-0.4039,-0.4368,-0.24600001,0.023,0.1
1.0,0.5959,-0.5323,-0.4043,-0.44479999,-0.273,0.008,0.101
1.0,0.58939999,-0.53179997,-0.40549999,-0.45299998,-0.29200003,0.002,0.10200001
1.0,0.58309996,-0.53029996,-0.40719998,-0.4612,-0.31500003,-0.013,0.108
1.0,0.5772,-0.52789998,-0.4095,-0.4693,-0.34100002,-0.045,0.10700001
1.0,0.57179999,-0.5248,-0.4122,-0.477,-0.36100003,-0.062,0.109
1.0,0.5668,-0.5212,-0.4152,-0.48429999,-0.37400001,-0.07300001,0.109
1.0,0.56239998,-0.51699996,-0.41849998,-0.49109998,-0.38900003,-0.085,0.105
1.0,0.55860001,-0.51239997,-0.4219,-0.4973,-0.39500001,-0.098,0.10300001
1.0,0.5553,-0.50749999,-0.42549998,-0.5029,-0.39100003,-0.119,0.10600001
1.0,0.55269998,-0.50229996,-0.42929998,-0.50769997,-0.37600002,-0.13000001,0.10700001
1.0,0.55059999,-0.49679998,-0.4332,-0.51199996,-0.36200002,-0.134,0.098
1.0,0.54909998,-0.491,-0.4373,-0.51569998,-0.36000001,-0.148,0.082
1.0,0.54799998,-0.48499998,-0.44149998,-0.51889998,-0.35200003,-0.15400001,0.06900001
1.0,0.54729998,-0.4788,-0.44589999,-0.52160001,-0.34800002,-0.15200001,0.063
1.0,0.54699999,-0.4725,-0.45039999,-0.52380002,-0.34400001,-0.15700001,0.063
1.0,0.54699999,-0.46619999,-0.45499998,-0.5255,-0.33400002,-0.15400001,0.06900001
1.0,0.54729998,-0.45999998,-0.45949998,-0.52669996,-0.33100003,-0.13800001,0.072
1.0,0.54799998,-0.45389998,-0.46399999,-0.52739996,-0.32600001,-0.12900001,0.07300001
1.0,0.54899997,-0.44799998,-0.4684,-0.52749997,-0.31600001,-0.10300001,0.07600001
1.0,0.55039996,-0.44229999,-0.4727,-0.52709997,-0.30600002,-0.06,0.082
1.0,0.5521,-0.43689999,-0.47669998,-0.52609998,-0.294,-0.042,0.082
1.0,0.55419999,-0.43169999,-0.48069999,-0.52469999,-0.27700001,-0.037,0.079
1.0,0.55659997,-0.42679998,-0.48439997,-0.5226,-0.257,-0.036,0.07300001
1.0,0.55939996,-0.42219999,-0.48799998,-0.51999998,-0.23600002,-0.035,0.06900001
1.0,0.5625,-0.4179,-0.49149999,-0.5169,-0.21700001,-0.032,0.068
1.0,0.56589997,-0.4138,-0.4948,-0.5133,-0.20100001,-0.023,0.075
1.0,0.56959999,-0.4102,-0.498,-0.509,-0.186,-0.008,0.086
1.0,0.57370001,-0.4068,-0.50089997,-0.50419998,-0.171,0.023,0.10200001
1.0,0.57819998,-0.4039,-0.50349998,-0.49879998,-0.15200001,0.043,0.119
1.0,0.58309996,-0.40129998,-0.50569999,-0.49289998,-0.12900001,0.054,0.123
1.0,0.58840001,-0.3989,-0.50760001,-0.48659998,-0.10700001,0.063,0.12200001
1.0,0.5941,-0.3969,-0.50909996,-0.4797,-0.08000001,0.06,0.115
1.0,0.59999996,-0.3951,-0.5104,-0.4725,-0.054,0.058,0.1
1.0,0.60589999,-0.3933,-0.5115,-0.46509999,-0.029,0.058,0.079
1.0,0.61189997,-0.3917,-0.51239997,-0.45749998,-0.009,0.058,0.07
1.0,0.61790001,-0.3901,-0.5133,-0.44979998,-0.005,0.11100001,0.07600001
1.0,0.62379998,-0.38859999,-0.51410002,-0.442,0.012,0.15400001,0.075
1.0,0.62970001,-0.38699999,-0.51480001,-0.43419999,0.04,0.149,0.06900001
1.0,0.6354,-0.3854,-0.51550001,-0.42639998,0.066,0.14400001,0.062
1.0,0.6408,-0.38369998,-0.51629996,-0.4188,0.08800001,0.12800001,0.057
1.0,0.64609998,-0.38189998,-0.51709998,-0.4113,0.10600001,0.11000001,0.052
1.0,0.65099996,-0.3802,-0.51800001,-0.4039,0.11700001,0.083,0.045
1.0,0.65579998,-0.37849998,-0.51889998,-0.39659998,0.123,0.048,0.039
1.0,0.66029996,-0.37709999,-0.51959997,-0.38929999,0.12,0.019,0.037
1.0,0.6649,-0.37629998,-0.51980001,-0.382,0.11000001,-0.011,0.036
1.0,0.66949999,-0.3761,-0.51949996,-0.37449998,0.192,-0.019,0.003
1.0,0.67369998,-0.37599999,-0.51919997,-0.36739999,0.22000001,-0.031,0.012
1.0,0.6778,-0.37639999,-0.51840001,-0.36039999,0.15200001,-0.041,0.043
1.0,0.6821,-0.37759998,-0.51679999,-0.35339999,0.17300001,-0.011,0.042
1.0,0.68629998,-0.37939999,-0.51449996,-0.3466,0.25,0.011,0.018
1.0,0.68989998,-0.3811,-0.51239997,-0.34059998,0.31100002,-0.01,-0.021
1.0,0.69279999,-0.38239998,-0.51099998,-0.33539999,0.27700001,-0.028,-0.042
1.0,0.69529998,-0.38339999,-0.50989997,-0.3308,0.22900002,-0.03,-0.048
1.0,0.69709998,-0.38419998,-0.50919998,-0.32699999,0.22200002,-0.027,-0.063
1.0,0.69819999,-0.3847,-0.50919998,-0.324,0.22200002,-0.018,-0.071
1.0,0.69870001,-0.38499999,-0.5097,-0.322,0.20200001,0.001,-0.067
1.0,0.69839996,-0.38519999,-0.51050001,-0.32080001,0.19800001,0.023,-0.06900001
1.0,0.69779998,-0.38549998,-0.5115,-0.32049999,0.18700001,0.046,-0.06500001
1.0,0.69679999,-0.38609999,-0.5122,-0.32080001,0.17500001,0.087,-0.064
1.0,0.69549996,-0.38699999,-0.51269996,-0.32170001,0.17500001,0.112,-0.07
1.0,0.69389999,-0.38799998,-0.51319999,-0.32319999,0.17200001,0.12400001,-0.081
1.0,0.6918,-0.38909999,-0.51379997,-0.32549998,0.15900001,0.13600001,-0.093
1.0,0.68909997,-0.39039999,-0.51449996,-0.32839999,0.142,0.141,-0.097
1.0,0.68599999,-0.39179999,-0.51529998,-0.3321,0.12400001,0.14400001,-0.097
1.0,0.68219995,-0.3933,-0.51620001,-0.3364,0.109,0.14300001,-0.097
1.0,0.67809999,-0.39489999,-0.51730001,-0.34129998,0.09900001,0.132,-0.098
1.0,0.6735,-0.39649999,-0.51840001,-0.3466,0.09,0.11300001,-0.101
1.0,0.66850001,-0.39809999,-0.51980001,-0.3524,0.079,0.085,-0.105
1.0,0.66319996,-0.3998,-0.52129996,-0.35839999,0.064,0.06,-0.104
1.0,0.65759999,-0.40149999,-0.52279997,-0.36449999,0.046,0.029,-0.098
1.0,0.65189999,-0.40329999,-0.52419996,-0.37059999,0.026,-0.002,-0.086
1.0,0.64609998,-0.40539998,-0.52560002,-0.3766,0.005,-0.026,-0.06900001
1.0,0.64039999,-0.40779999,-0.5266,-0.3822,-0.016,-0.051,-0.05
1.0,0.63499999,-0.41059998,-0.52719998,-0.38729998,-0.04,-0.067,-0.03
1.0,0.63,-0.41399997,-0.52719998,-0.3919,-0.063,-0.075,-0.01
1.0,0.62549996,-0.4181,-0.52639997,-0.39579999,-0.09,-0.078,0.007
1.0,0.62169999,-0.42309999,-0.52469999,-0.3987,-0.116,-0.074,0.021
1.0,0.61860001,-0.4289,-0.52200001,-0.40079999,-0.14500001,-0.063,0.03
1.0,0.6164,-0.43579999,-0.51809996,-0.40189999,-0.17200001,-0.039,0.033
1.0,0.61489999,-0.4436,-0.51309997,-0.40199998,-0.192,-0.034,0.028
1.0,0.61409998,-0.45229998,-0.50699997,-0.40129998,-0.20400001,-0.025,0.016
1.0,0.61399996,-0.46169999,-0.49989998,-0.39969999,-0.20700002,-0.015,0.003
1.0,0.6142,-0.4716,-0.4921,-0.39749998,-0.21900001,-0.004,-0.004
1.0,0.6146,-0.48189998,-0.48359999,-0.39479998,-0.223,0.011,-0.011
1.0,0.61519998,-0.49239999,-0.47469997,-0.3917,-0.22900002,0.029,-0.015
1.0,0.61579996,-0.5029,-0.46559998,-0.38850001,-0.23800001,0.046,-0.016
1.0,0.61629999,-0.5133,-0.45629999,-0.38509998,-0.24400002,0.064,-0.015
1.0,0.61659998,-0.52349997,-0.447,-0.3818,-0.25100002,0.07600001,-0.012
1.0,0.61680001,-0.53329998,-0.43779999,-0.3786,-0.26100001,0.086,-0.009
1.0,0.61669999,-0.54259998,-0.4289,-0.3757,-0.27400002,0.096,-0.008
1.0,0.61629999,-0.55149996,-0.42019999,-0.373,-0.29200003,0.096,-0.004
1.0,0.61579996,-0.56,-0.4118,-0.37059999,-0.31400001,0.101,0.002
1.0,0.61519998,-0.56809998,-0.40379998,-0.36829999,-0.34,0.101,0.011
1.0,0.61449999,-0.5758,-0.39579999,-0.366,-0.35900003,0.096,0.024
1.0,0.61379999,-0.58319998,-0.38799998,-0.3637,-0.38100001,0.087,0.041
1.0,0.61329997,-0.59039998,-0.38029999,-0.3612,-0.40300003,0.074,0.054
1.0,0.61289996,-0.59749997,-0.3725,-0.35839999,-0.42300001,0.062,0.062
1.0,0.61269999,-0.60439998,-0.36449999,-0.35519999,-0.43800002,0.04,0.072
1.0,0.61289996,-0.61129999,-0.35639998,-0.35139999,-0.45300001,0.019,0.081
1.0,0.61339998,-0.61809999,-0.34799999,-0.347,-0.46700001,0.005,0.087
1.0,0.61430001,-0.62489998,-0.33939999,-0.3418,-0.47800002,-0.011,0.09500001
1.0,0.61559999,-0.63169998,-0.33039999,-0.33579999,-0.48800004,-0.022,0.1
1.0,0.61719996,-0.63839996,-0.32099998,-0.329,-0.49900001,-0.019,0.093
1.0,0.61930001,-0.6451,-0.31129998,-0.3213,-0.51100004,-0.012,0.08000001
1.0,0.62169999,-0.65169996,-0.30109999,-0.31279999,-0.51700002,-0.005,0.07300001
1.0,0.62449998,-0.65829998,-0.29049999,-0.3035,-0.51500005,-0.007,0.071
1.0,0.6275,-0.66469997,-0.27950001,-0.29339999,-0.50700003,-0.01,0.071
1.0,0.63089997,-0.67079997,-0.26819998,-0.28259999,-0.50100005,-0.005,0.068
1.0,0.63440001,-0.6767,-0.25659999,-0.27129999,-0.49200001,0.0,0.054
1.0,0.63819999,-0.68199998,-0.24489999,-0.2595,-0.49000001,0.007,0.036
1.0,0.64209998,-0.68699998,-0.2332,-0.24749999,-0.48500001,0.017,0.023
1.0,0.64609998,-0.69129997,-0.22149999,-0.23539999,-0.47200003,0.027,0.006
1.0,0.65020001,-0.69510001,-0.20999999,-0.2233,-0.46000001,0.039,-0.013
1.0,0.65439999,-0.69819999,-0.1988,-0.2113,-0.44400004,0.038,-0.031
1.0,0.65869999,-0.70050001,-0.1882,-0.1996,-0.42900002,0.041,-0.05
1.0,0.66299999,-0.7022,-0.17819999,-0.1882,-0.41700003,0.041,-0.06
1.0,0.6674,-0.70319998,-0.1688,-0.177,-0.40000001,0.037,-0.06900001
1.0,0.67189997,-0.70359999,-0.1603,-0.1663,-0.38800001,0.039,-0.07700001
1.0,0.67649996,-0.7033,-0.1524,-0.1559,-0.37800002,0.04,-0.089
1.0,0.68119997,-0.70249999,-0.1452,-0.1459,-0.36900002,0.04,-0.105
1.0,0.68599999,-0.70089996,-0.1389,-0.1365,-0.35900003,0.037,-0.119
1.0,0.69089997,-0.69889998,-0.13339999,-0.1274,-0.35300002,0.035,-0.133
1.0,0.69580001,-0.6965,-0.1285,-0.1187,-0.347,0.033,-0.14400001
1.0,0.7008,-0.6936,-0.1244,-0.1104,-0.34100002,0.031,-0.156
1.0,0.70589995,-0.69029999,-0.1209,-0.1023,-0.33400002,0.029,-0.16500001
1.0,0.71109998,-0.68659997,-0.118,-0.0945,-0.33000001,0.036,-0.177
1.0,0.71619999,-0.68259996,-0.1156,-0.08679999,-0.324,0.041,-0.18800001
1.0,0.72149998,-0.67839998,-0.1135,-0.0793,-0.317,0.052,-0.20100001
1.0,0.72670001,-0.67379999,-0.11189999,-0.0718,-0.30100003,0.063,-0.21000001
1.0,0.73199999,-0.66909999,-0.11059999,-0.0643,-0.28100002,0.066,-0.21400002
1.0,0.73729998,-0.66409999,-0.10969999,-0.0569,-0.25600001,0.062,-0.21400002
1.0,0.74269998,-0.65869999,-0.1094,-0.0497,-0.23500001,0.052,-0.21600001
1.0,0.74799997,-0.653,-0.10969999,-0.0427,-0.21900001,0.057,-0.223
1.0,0.75349998,-0.64699996,-0.1107,-0.0359,-0.2,0.075,-0.23100001
1.0,0.759,-0.64050001,-0.1126,-0.0296,-0.18000001,0.11000001,-0.24800001
1.0,0.76459998,-0.63349998,-0.1156,-0.0238,-0.162,0.15800001,-0.28500003
1.0,0.77029997,-0.62589997,-0.1199,-0.0186,-0.13900001,0.21000001,-0.34
1.0,0.77590001,-0.61790001,-0.1258,-0.0142,-0.11000001,0.23,-0.38300002
1.0,0.78139997,-0.60949999,-0.13319999,-0.0104,-0.082,0.23,-0.40700001
1.0,0.78669995,-0.60049999,-0.1424,-0.0074,-0.053,0.23500001,-0.41900003
1.0,0.79170001,-0.59130001,-0.1532,-0.005,-0.04,0.25100002,-0.42700002
1.0,0.79619998,-0.58179998,-0.1655,-0.0032,-0.037,0.27400002,-0.43600002
1.0,0.80039996,-0.57199997,-0.17899999,-0.0018,-0.036,0.30100003,-0.44300002
1.0,0.8039,-0.56220001,-0.1936,-0.0007,-0.021,0.30500001,-0.44700003
1.0,0.80689996,-0.55239999,-0.20879999,0.0002,-0.004,0.28300002,-0.45000002
1.0,0.80919999,-0.54269999,-0.22459999,0.0013,0.014,0.24100001,-0.44700003
1.0,0.81079996,-0.5334,-0.24049999,0.0027,0.038,0.18700001,-0.43500003
1.0,0.81169999,-0.52459997,-0.2563,0.0046,0.062,0.12200001,-0.40800002
1.0,0.81199998,-0.51639998,-0.27160001,0.0073,0.085,0.078,-0.37
1.0,0.81169999,-0.50879997,-0.2863,0.0107,0.10300001,0.06,-0.33600003
1.0,0.81099999,-0.50209999,-0.29969999,0.0152,0.097,0.042,-0.29100001
1.0,0.80989999,-0.4964,-0.31149998,0.0208,0.112,0.032,-0.25800002
1.0,0.80879998,-0.49149999,-0.32139999,0.0275,0.12400001,0.044,-0.21400002
1.0,0.80779999,-0.48789999,-0.32870001,0.0357,0.133,0.062,-0.162
1.0,0.80689996,-0.48519999,-0.3335,0.0451,0.15100001,0.085,-0.112
1.0,0.80649996,-0.48349997,-0.3355,0.0557,0.156,0.10200001,-0.064
1.0,0.80649996,-0.48269999,-0.33429998,0.0677,0.16700001,0.12400001,-0.041
1.0,0.80689996,-0.48259997,-0.33059999,0.0807,0.18800001,0.13700001,-0.033
1.0,0.80769998,-0.48299998,-0.32439998,0.09429999,0.22200002,0.13600001,-0.042
1.0,0.80869997,-0.48389998,-0.31599998,0.1086,0.25500003,0.125,-0.05
1.0,0.80969995,-0.48499998,-0.3062,0.1231,0.28300002,0.11800001,-0.061
1.0,0.81059998,-0.48639998,-0.29530001,0.1374,0.32200003,0.11100001,-0.075
1.0,0.81129998,-0.48809999,-0.28369999,0.1515,0.35000002,0.1,-0.087
1.0,0.81169999,-0.48989999,-0.27160001,0.16509999,0.36500001,0.08800001,-0.08800001
1.0,0.81169999,-0.49199998,-0.25920001,0.17809999,0.38000003,0.074,-0.083
1.0,0.81149995,-0.49419999,-0.2465,0.19049999,0.39600003,0.056,-0.075
1.0,0.81089997,-0.49669999,-0.23359999,0.2023,0.40700001,0.04,-0.053
1.0,0.81019998,-0.49939999,-0.22039999,0.21339999,0.42000002,0.023,-0.031
1.0,0.80909997,-0.50220001,-0.20709999,0.22369999,0.43100002,0.002,-0.011
1.0,0.80789995,-0.50519997,-0.1937,0.2332,0.43400002,-0.011,0.004
1.0,0.8064,-0.50839996,-0.1803,0.2419,0.43300003,-0.02,0.013
1.0,0.80479997,-0.51179999,-0.16679999,0.2499,0.42500001,-0.03,0.009
1.0,0.80289996,-0.51539999,-0.15339999,0.257,0.42400002,-0.036,0.001
1.0,0.80079997,-0.51919997,-0.14019999,0.2633,0.42400002,-0.033,-0.009
1.0,0.79839998,-0.52340001,-0.12709999,0.26890001,0.41400003,-0.031,-0.017
1.0,0.79569995,-0.528,-0.1142,0.27339998,0.40700001,-0.02,-0.018
1.0,0.79289997,-0.53299999,-0.1016,0.27719998,0.39400002,-0.003,-0.012
1.0,0.78979999,-0.53819996,-0.0892,0.28009999,0.37600002,0.015,0.0
1.0,0.78659999,-0.54369998,-0.0769,0.28219998,0.35900003,0.039,0.032
1.0,0.78319997,-0.54930001,-0.0645,0.28369999,0.33900002,0.058,0.068
1.0,0.7798,-0.55500001,-0.0522,0.28459999,0.31300002,0.07600001,0.09
1.0,0.77639997,-0.56059998,-0.0398,0.28489998,0.28100002,0.09,0.097
1.0,0.77289999,-0.56619996,-0.0273,0.28479999,0.25100002,0.09500001,0.09900001
1.0,0.76949996,-0.57159996,-0.0149,0.2843,0.22500001,0.09900001,0.098
1.0,0.76599997,-0.57690001,-0.0024,0.2834,0.19900002,0.10200001,0.097
1.0,0.76249999,-0.58199996,0.0098,0.28219998,0.17400001,0.09900001,0.096
1.0,0.75909996,-0.58679998,0.022,0.2807,0.147,0.09500001,0.09100001
1.0,0.75569999,-0.59149998,0.034,0.27899998,0.125,0.083,0.086
1.0,0.75229996,-0.59579998,0.0457,0.2771,0.104,0.072,0.082
1.0,0.74899995,-0.59999996,0.057,0.27500001,0.08800001,0.064,0.074
1.0,0.74579996,-0.60389996,0.0678,0.2728,0.07,0.052,0.071
1.0,0.74259996,-0.60759997,0.0781,0.2705,0.051,0.037,0.075
1.0,0.73949999,-0.611,0.0879,0.26819998,0.033,0.026,0.08400001
1.0,0.73649997,-0.61430001,0.097,0.2658,0.013,0.012,0.093
1.0,0.73359996,-0.61729997,0.1056,0.26359999,-0.003,-0.006,0.10300001
1.0,0.73089999,-0.62009996,0.1134,0.26139998,-0.021,-0.028,0.112
1.0,0.72819996,-0.62259996,0.1208,0.25939998,-0.038,-0.045,0.11800001
1.0,0.72569996,-0.625,0.1275,0.25749999,-0.052,-0.064,0.12
1.0,0.72329998,-0.62720001,0.13349999,0.2559,-0.066,-0.08400001,0.12800001
1.0,0.72099996,-0.62919998,0.1391,0.25439999,-0.07700001,-0.097,0.14600001
1.0,0.71880001,-0.6311,0.1441,0.25329998,-0.078,-0.09900001,0.16700001
1.0,0.71679997,-0.63269997,0.14839999,0.25229999,-0.082,-0.10200001,0.171
1.0,0.71509999,-0.63419998,0.152,0.25139999,-0.071,-0.11000001,0.17200001
1.0,0.7137,-0.63559997,0.15439999,0.25029999,-0.057,-0.10600001,0.16100001
1.0,0.71279997,-0.63690001,0.15539999,0.24869999,-0.044,-0.10600001,0.142
1.0,0.71239996,-0.63839996,0.1549,0.2465,-0.04,-0.109,0.132
1.0,0.71249998,-0.63999999,0.1525,0.24339999,-0.048,-0.109,0.133
1.0,0.71309996,-0.64169997,0.1486,0.23969999,-0.055,-0.10200001,0.13800001
1.0,0.7141,-0.64340001,0.1432,0.23529999,-0.06900001,-0.096,0.13500001
1.0,0.71569997,-0.64519995,0.13589999,0.22989999,-0.051,-0.079,0.12800001
1.0,0.71759999,-0.64709997,0.1269,0.22369999,-0.049,-0.071,0.13000001
1.0,0.71999997,-0.64889997,0.1161,0.2166,-0.058,-0.06,0.133
1.0,0.72259998,-0.65069997,0.1036,0.2084,-0.098,-0.058,0.125
1.0,0.72539997,-0.65239996,0.08989999,0.1997,-0.11400001,-0.051,0.10700001
1.0,0.72819996,-0.65399998,0.0752,0.19049999,-0.141,-0.049,0.09900001
1.0,0.73079997,-0.65539998,0.0599,0.18099999,-0.19100001,-0.052,0.094
1.0,0.73299998,-0.65649998,0.0448,0.1717,-0.23400001,-0.051,0.089
1.0,0.73479998,-0.65749997,0.0305,0.163,-0.27000001,-0.036,0.082
1.0,0.73619998,-0.6584,0.0172,0.1551,-0.30000001,-0.015,0.085
1.0,0.73719996,-0.6591,0.0053,0.1481,-0.32300001,0.02,0.08800001
1.0,0.7378,-0.65979999,-0.0048,0.14209999,-0.333,0.07700001,0.09100001
1.0,0.73809999,-0.66039997,-0.0135,0.1372,-0.34800002,0.12800001,0.097
1.0,0.73809999,-0.6609,-0.0204,0.13329999,-0.35600001,0.18300001,0.1
1.0,0.73799998,-0.66149998,-0.0256,0.1305,-0.35500002,0.22700001,0.10200001
1.0,0.73769999,-0.662,-0.0294,0.1285,-0.34200001,0.24800001,0.10300001
1.0,0.73729998,-0.66259998,-0.0318,0.1275,-0.32200003,0.25,0.098
1.0,0.73679996,-0.6631,-0.0331,0.12719999,-0.30500001,0.24200001,0.089
1.0,0.73619998,-0.66369998,-0.0338,0.1275,-0.29100001,0.22100002,0.079
1.0,0.73539996,-0.66439998,-0.0337,0.1287,-0.27800003,0.17600001,0.06900001
1.0,0.73449999,-0.66499996,-0.033,0.13059999,-0.26500002,0.13100001,0.063
1.0,0.73339999,-0.66569996,-0.0319,0.13319999,-0.24400002,0.08400001,0.057
1.0,0.73210001,-0.66649997,-0.0304,0.13679999,-0.22100002,0.039,0.055
1.0,0.7306,-0.66729999,-0.0287,0.14129999,-0.208,0.006,0.056
1.0,0.72899997,-0.66799998,-0.0266,0.14659999,-0.19500001,-0.029,0.055
1.0,0.72709996,-0.66869998,-0.0242,0.1529,-0.177,-0.063,0.055
1.0,0.72509998,-0.66929996,-0.0214,0.1602,-0.17200001,-0.089,0.054
1.0,0.72289997,-0.66979998,-0.0183,0.1683,-0.162,-0.10300001,0.053
1.0,0.72049999,-0.67009997,-0.0149,0.17739999,-0.13900001,-0.09900001,0.053
1.0,0.71799999,-0.67019999,-0.0116,0.18699999,-0.11100001,-0.087,0.054
1.0,0.71539998,-0.67009997,-0.0086,0.1972,-0.08800001,-0.067,0.053
1.0,0.71289998,-0.66969997,-0.0057,0.2077,-0.067,-0.044,0.046
1.0,0.71029997,-0.66899997,-0.0032,0.2184,-0.046,-0.023,0.034
1.0,0.70779997,-0.6681,-0.0013,0.22899999,-0.025,0.014,0.018
1.0,0.70539999,-0.667,0.0,0.2395,-0.003,0.051,0.005
1.0,0.70309997,-0.66569996,0.0006,0.24959999,0.01,0.089,-0.005
1.0,0.70109999,-0.66420001,0.0005,0.25929999,0.016,0.13000001,-0.015
1.0,0.69909996,-0.66249996,-0.0001,0.26859999,0.026,0.16700001,-0.024
1.0,0.69749999,-0.66060001,-0.0014,0.27739999,0.041,0.21400002,-0.034
1.0,0.69599998,-0.65859997,-0.0033,0.28569999,0.055,0.24600001,-0.052
1.0,0.69489998,-0.65639997,-0.006,0.29350001,0.07300001,0.25100002,-0.078
1.0,0.69389999,-0.6541,-0.0093,0.30069998,0.087,0.24000001,-0.109
1.0,0.69319999,-0.65179998,-0.0134,0.30719998,0.101,0.22800002,-0.13000001
1.0,0.6925,-0.64950001,-0.0182,0.3132,0.116,0.22000001,-0.14500001
1.0,0.69189996,-0.64739996,-0.0239,0.3184,0.112,0.21600001,-0.14400001
1.0,0.69139999,-0.64539999,-0.0305,0.32299998,0.119,0.20900001,-0.142
1.0,0.69089997,-0.64349997,-0.038,0.32690001,0.115,0.193,-0.13900001
1.0,0.6904,-0.64179999,-0.0464,0.3303,0.112,0.17,-0.141
1.0,0.68979996,-0.6401,-0.0555,0.33329999,0.12400001,0.14300001,-0.13800001
1.0,0.68909997,-0.63849998,-0.0652,0.33609998,0.13500001,0.116,-0.141
1.0,0.6882,-0.63709998,-0.0756,0.33840001,0.13900001,0.089,-0.15000001
1.0,0.68699998,-0.6358,-0.0863,0.3407,0.14300001,0.07600001,-0.16100001
1.0,0.68559998,-0.63449997,-0.097,0.34309998,0.148,0.061,-0.162
1.0,0.68399996,-0.63319999,-0.1077,0.3457,0.156,0.066,-0.15700001
1.0,0.68219995,-0.6318,-0.11809999,0.3484,0.15800001,0.089,-0.15300001
1.0,0.6803,-0.63019997,-0.12789999,0.3515,0.15300001,0.116,-0.147
1.0,0.67839998,-0.62849998,-0.13689999,0.35479999,0.15900001,0.12800001,-0.149
1.0,0.67649996,-0.62650001,-0.1452,0.3585,0.171,0.133,-0.155
1.0,0.67479998,-0.62439996,-0.1524,0.36249998,0.19100001,0.13600001,-0.163
1.0,0.67320001,-0.6221,-0.15869999,0.36659998,0.21100001,0.134,-0.17
1.0,0.67179996,-0.61979997,-0.16409999,0.37079999,0.23,0.13100001,-0.17
1.0,0.6706,-0.61729997,-0.16869999,0.37489998,0.257,0.123,-0.17300001
1.0,0.66960001,-0.61489999,-0.17279999,0.3788,0.266,0.12,-0.178
1.0,0.6688,-0.61250001,-0.17649999,0.38229999,0.27100003,0.12100001,-0.18700001
1.0,0.66819996,-0.6103,-0.17979999,0.3854,0.28800002,0.112,-0.193
1.0,0.66769999,-0.60829997,-0.1829,0.38789999,0.30600002,0.105,-0.19500001
1.0,0.6674,-0.60649997,-0.1859,0.3899,0.32300001,0.10200001,-0.192
1.0,0.66710001,-0.60499996,-0.18879999,0.39129999,0.33000001,0.1,-0.18400002
1.0,0.667,-0.60369998,-0.19149999,0.39229998,0.33000001,0.098,-0.178
1.0,0.667,-0.60259998,-0.19399999,0.3926,0.32700002,0.098,-0.171
1.0,0.66729999,-0.60170001,-0.1963,0.39249998,0.32300001,0.105,-0.16700001
1.0,0.66769999,-0.60089999,-0.1982,0.39199999,0.31900001,0.104,-0.16700001
1.0,0.66839999,-0.6002,-0.1996,0.39109999,0.32100001,0.094,-0.17300001
1.0,0.66939998,-0.59969997,-0.2006,0.38979998,0.32300001,0.08400001,-0.18000001
1.0,0.67049998,-0.59929997,-0.20119999,0.3881,0.324,0.06900001,-0.18900001
1.0,0.67189997,-0.59899998,-0.20109999,0.38609999,0.32600001,0.053,-0.193
1.0,0.6735,-0.59899998,-0.2005,0.38369998,0.32300001,0.043,-0.19700001
1.0,0.6753,-0.59909999,-0.19929999,0.3809,0.32000002,0.039,-0.19400001
1.0,0.67739999,-0.59939998,-0.19739999,0.37779999,0.31300002,0.038,-0.19000001
1.0,0.6796,-0.59990001,-0.19499999,0.3743,0.303,0.047,-0.18100001
1.0,0.68199998,-0.6006,-0.1919,0.37029999,0.289,0.063,-0.17200001
1.0,0.68470001,-0.60139996,-0.18799999,0.366,0.27700001,0.07,-0.16900001
1.0,0.68759996,-0.60229999,-0.18349999,0.36129999,0.26500002,0.07600001,-0.17200001
1.0,0.69069999,-0.60339999,-0.17819999,0.35609999,0.25400001,0.08000001,-0.17900001
1.0,0.69409996,-0.60460001,-0.1723,0.35049999,0.24200001,0.078,-0.18800001
1.0,0.69749999,-0.60589999,-0.16579999,0.34439999,0.22900002,0.07700001,-0.193
1.0,0.70109999,-0.60749996,-0.15869999,0.33769998,0.215,0.08000001,-0.19500001
1.0,0.70480001,-0.60909998,-0.1512,0.33049998,0.2,0.086,-0.19700001
1.0,0.70849997,-0.611,-0.14309999,0.32269999,0.18200001,0.10600001,-0.19800001
1.0,0.71219999,-0.61299998,-0.1347,0.3141,0.16100001,0.13800001,-0.19800001
1.0,0.7159,-0.61519998,-0.126,0.30489999,0.13500001,0.17200001,-0.19700001
1.0,0.71959996,-0.61750001,-0.1169,0.2949,0.104,0.22000001,-0.19600001
1.0,0.72329998,-0.62,-0.1076,0.28399998,0.06900001,0.26500002,-0.192
1.0,0.72689998,-0.62259996,-0.0981,0.27249998,0.032,0.30400002,-0.185
1.0,0.73039997,-0.62519997,-0.0882,0.26010001,-0.004,0.35100001,-0.18000001
1.0,0.73379999,-0.6279,-0.0782,0.24699999,-0.04,0.39300001,-0.17600001
1.0,0.73699999,-0.63059998,-0.0681,0.2333,-0.08000001,0.43100002,-0.171
1.0,0.74000001,-0.63319999,-0.058,0.21879999,-0.11400001,0.45900002,-0.163
1.0,0.7428,-0.6358,-0.048,0.20389999,-0.14300001,0.47600001,-0.162
1.0,0.74529999,-0.6383,-0.0382,0.1884,-0.17200001,0.47900003,-0.16500001
1.0,0.7475,-0.64069998,-0.0288,0.1726,-0.19800001,0.45500001,-0.15400001
1.0,0.74919999,-0.64309996,-0.0198,0.1566,-0.21600001,0.42000002,-0.13000001
1.0,0.75059998,-0.6455,-0.0116,0.14049999,-0.23100001,0.37800002,-0.08000001
1.0,0.75159997,-0.64770001,-0.0045,0.12419999,-0.25400001,0.34,-0.031
1.0,0.75220001,-0.64989996,0.0016,0.108,-0.29100001,0.29700002,0.012
1.0,0.7525,-0.65189999,0.0069,0.09209999,-0.34100002,0.24100001,0.07
1.0,0.7525,-0.65380001,0.0118,0.0769,-0.384,0.19700001,0.12400001
1.0,0.75220001,-0.65560001,0.0162,0.0624,-0.42200002,0.156,0.17600001
1.0,0.75159997,-0.6573,0.0206,0.0493,-0.46400002,0.11400001,0.22700001
1.0,0.75079995,-0.65889996,0.0252,0.0375,-0.49700001,0.07700001,0.26500002
1.0,0.74970001,-0.66039997,0.0301,0.0272,-0.51700002,0.046,0.29500002
1.0,0.74839997,-0.66189998,0.0353,0.0188,-0.537,0.005,0.31200001
1.0,0.74699998,-0.66329998,0.0408,0.0121,-0.55300003,-0.03,0.31500003
1.0,0.74549997,-0.66469997,0.0465,0.0071,-0.55400002,-0.067,0.317
1.0,0.7439,-0.66609997,0.0522,0.0038,-0.546,-0.096,0.31800002
1.0,0.74219996,-0.66749996,0.0578,0.002,-0.53500003,-0.115,0.32300001
1.0,0.74049997,-0.66889995,0.0631,0.0017,-0.51900005,-0.13100001,0.32300001
1.0,0.73890001,-0.67030001,0.0681,0.0028,-0.50800002,-0.13600001,0.32500002
1.0,0.73729998,-0.67149997,0.0728,0.0052,-0.50200003,-0.13100001,0.33000001
1.0,0.73569995,-0.67269999,0.0771,0.0086,-0.48400003,-0.123,0.33200002
1.0,0.73429996,-0.67379999,0.081,0.0132,-0.47000003,-0.11400001,0.33400002
1.0,0.73289996,-0.67469996,0.0846,0.0187,-0.45900002,-0.11400001,0.33500001
1.0,0.73159999,-0.67539996,0.0878,0.0253,-0.44000003,-0.123,0.33700001
1.0,0.73049998,-0.676,0.0909,0.0325,-0.42100003,-0.133,0.33500001
1.0,0.72929996,-0.67640001,0.0939,0.0404,-0.40000001,-0.148,0.32900003
1.0,0.72819996,-0.67659998,0.0967,0.049,-0.38600001,-0.16000001,0.32200003
1.0,0.72709996,-0.67680001,0.0994,0.0579,-0.37900001,-0.16600001,0.31500003
1.0,0.72589999,-0.67680001,0.102,0.0673,-0.36900002,-0.17600001,0.30400002
1.0,0.72459996,-0.6767,0.1046,0.077,-0.35600001,-0.185,0.29000002
1.0,0.72329998,-0.67649996,0.1072,0.087,-0.34500003,-0.18900001,0.27600002
1.0,0.72179997,-0.67629999,0.1098,0.0972,-0.33400002,-0.185,0.257
1.0,0.72029996,-0.67589998,0.1124,0.10749999,-0.32300001,-0.178,0.24400002
1.0,0.71859998,-0.67549998,0.1151,0.11809999,-0.31300002,-0.16100001,0.23100001
1.0,0.71669996,-0.67500001,0.1179,0.12879999,-0.303,-0.12900001,0.215
1.0,0.7148,-0.67439997,0.1208,0.1397,-0.294,-0.11100001,0.20200001
1.0,0.71279997,-0.67359996,0.1237,0.1507,-0.28200001,-0.09500001,0.18200001
1.0,0.71059996,-0.67269999,0.1267,0.162,-0.266,-0.079,0.155
1.0,0.70840001,-0.67159998,0.12969999,0.1733,-0.24800001,-0.074,0.13500001
1.0,0.70609999,-0.67039996,0.1327,0.1849,-0.23200001,-0.075,0.108
1.0,0.70370001,-0.66909999,0.1354,0.19649999,-0.21600001,-0.08000001,0.071
1.0,0.70120001,-0.66769999,0.13769999,0.20819999,-0.20100001,-0.082,0.037
1.0,0.69859999,-0.66619998,0.13959999,0.2199,-0.186,-0.078,0.001
1.0,0.69589996,-0.66479999,0.141,0.23169999,-0.16700001,-0.07300001,-0.022
1.0,0.69299996,-0.66339999,0.1418,0.2436,-0.148,-0.057,-0.034
1.0,0.69009995,-0.66189998,0.14209999,0.25549999,-0.134,-0.025,-0.041
1.0,0.68699998,-0.66039997,0.1418,0.2674,-0.125,-0.004,-0.043
1.0,0.68399996,-0.65869999,0.14109999,0.27950001,-0.127,0.027,-0.049
1.0,0.68089998,-0.65689999,0.1397,0.29170001,-0.116,0.056,-0.071
1.0,0.67789996,-0.65499997,0.13769999,0.30379999,-0.097,0.064,-0.096
1.0,0.6749,-0.653,0.1349,0.31579998,-0.083,0.072,-0.123
1.0,0.67189997,-0.65109998,0.1312,0.3276,-0.062,0.074,-0.15100001
1.0,0.66889995,-0.64919996,0.1267,0.33899999,-0.04,0.074,-0.177
1.0,0.66579998,-0.64749998,0.1212,0.34999999,-0.033,0.07300001,-0.20200001
1.0,0.6627,-0.64609998,0.1147,0.36059999,-0.04,0.08800001,-0.22400001
1.0,0.6595,-0.64489996,0.1074,0.37059999,-0.036,0.11100001,-0.24900001
1.0,0.65619999,-0.64429998,0.0988,0.38,-0.035,0.171,-0.27900001
1.0,0.65270001,-0.64419997,0.0892,0.38850001,-0.034,0.23700002,-0.29700002
1.0,0.64910001,-0.64449996,0.0788,0.39609998,-0.029,0.28500003,-0.30600002
1.0,0.64519995,-0.64559996,0.0676,0.40279999,-0.03,0.31900001,-0.30100003
1.0,0.64099997,-0.64719999,0.0559,0.40869999,-0.032,0.33500001,-0.29000002
1.0,0.6365,-0.64910001,0.0442,0.41399997,-0.035,0.33200002,-0.27100003
1.0,0.63159996,-0.65139997,0.0329,0.4188,-0.031,0.29700002,-0.24300002
1.0,0.62639999,-0.65389997,0.0221,0.4235,-0.017,0.257,-0.22100002
1.0,0.62089998,-0.65649998,0.012,0.42809999,-0.006,0.21200001,-0.20400001
1.0,0.61489999,-0.65899998,0.0032,0.43289998,0.005,0.16900001,-0.19000001
1.0,0.60869998,-0.66149998,-0.0045,0.43789998,0.024,0.133,-0.185
1.0,0.60219997,-0.66369998,-0.011,0.44329998,0.044,0.101,-0.186
1.0,0.59539998,-0.6656,-0.0158,0.44949999,0.064,0.07600001,-0.186
1.0,0.58840001,-0.66710001,-0.0189,0.45629999,0.087,0.057,-0.18700001
1.0,0.5812,-0.66799998,-0.0202,0.46409997,0.11100001,0.043,-0.185
1.0,0.57389998,-0.66829997,-0.0198,0.47259998,0.13700001,0.038,-0.19000001
1.0,0.56669998,-0.6681,-0.018,0.48169997,0.156,0.043,-0.19600001
1.0,0.55949998,-0.66719997,-0.0146,0.49139997,0.185,0.058,-0.20700002
1.0,0.55229998,-0.66589999,-0.0103,0.50119996,0.20400001,0.071,-0.21800001
1.0,0.54539996,-0.66420001,-0.0051,0.51109999,0.223,0.083,-0.23300001
1.0,0.53859997,-0.66209996,0.0008,0.52099997,0.24700001,0.096,-0.25100002
1.0,0.53209996,-0.65979999,0.0073,0.53049999,0.26800001,0.10600001,-0.26500002
1.0,0.52579999,-0.65740001,0.0142,0.5395,0.289,0.11000001,-0.27600002
1.0,0.51980001,-0.65499997,0.0214,0.5478,0.30500001,0.123,-0.28500003
1.0,0.51419997,-0.65279996,0.0289,0.55540001,0.31500003,0.12800001,-0.29000002
1.0,0.50889999,-0.65069997,0.0365,0.56220001,0.32100001,0.126,-0.29000002
1.0,0.50409997,-0.64899999,0.0442,0.56799996,0.32100001,0.127,-0.29100001
1.0,0.49949998,-0.6476,0.0521,0.5729,0.32300001,0.123,-0.29200003
1.0,0.49539998,-0.64649999,0.0603,0.57690001,0.32000002,0.104,-0.28600001
1.0,0.49149999,-0.64579999,0.0687,0.5801,0.31300002,0.087,-0.27500001
1.0,0.48789999,-0.64519995,0.07759999,0.58270001,0.29700002,0.072,-0.25800002
1.0,0.48449999,-0.64459997,0.0872,0.5848,0.28100002,0.063,-0.24100001
1.0,0.4813,-0.64379996,0.0976,0.58660001,0.26500002,0.056,-0.22100002
1.0,0.47829998,-0.64279997,0.10879999,0.58829999,0.24100001,0.058,-0.20100001
1.0,0.47549999,-0.64109999,0.1213,0.58989996,0.21700001,0.062,-0.18800001
1.0,0.4727,-0.63879997,0.1348,0.59169996,0.20200001,0.059,-0.18200001
1.0,0.47,-0.6358,0.1494,0.59359998,0.18900001,0.058,-0.178
1.0,0.4673,-0.63199997,0.16509999,0.59560001,0.16900001,0.058,-0.17500001
1.0,0.4646,-0.62739998,0.18159999,0.59779996,0.148,0.06,-0.16700001
1.0,0.46179998,-0.62189996,0.19909999,0.60009998,0.123,0.075,-0.15700001
1.0,0.45899999,-0.61549997,0.2173,0.60259998,0.10200001,0.08800001,-0.147
1.0,0.45619997,-0.60820001,0.236,0.60509998,0.081,0.10300001,-0.141
1.0,0.4533,-0.59999996,0.255,0.60769999,0.06500001,0.12,-0.142
1.0,0.45039999,-0.59109998,0.27410001,0.6103,0.049,0.127,-0.15000001
1.0,0.44759998,-0.58160001,0.29299998,0.61259997,0.036,0.134,-0.16000001
1.0,0.44479999,-0.57169998,0.3116,0.61479998,0.026,0.13900001,-0.171
1.0,0.44219998,-0.56159997,0.32969999,0.61659998,0.012,0.141,-0.177
1.0,0.43979999,-0.55129999,0.34709999,0.61799997,0.002,0.156,-0.18000001
1.0,0.4377,-0.54119998,0.3635,0.61899996,-0.008,0.17500001,-0.18100001
1.0,0.43599999,-0.53130001,0.37889999,0.6196,-0.023,0.185,-0.18200001
1.0,0.4348,-0.52169997,0.39309999,0.61969995,-0.031,0.18400002,-0.18300001
1.0,0.4341,-0.51269996,0.4059,0.61949998,-0.041,0.18100001,-0.18100001
1.0,0.43379998,-0.5043,0.41749999,0.6189,-0.054,0.17600001,-0.17600001
1.0,0.4341,-0.4966,0.4276,0.61799997,-0.066,0.164,-0.16700001
1.0,0.435,-0.48979998,0.43609998,0.61689997,-0.081,0.147,-0.15900001
1.0,0.43619999,-0.48379999,0.44329998,0.61559999,-0.101,0.12400001,-0.15400001
1.0,0.43789998,-0.4786,0.449,0.61439997,-0.12100001,0.098,-0.15400001
1.0,0.43969998,-0.4743,0.45339999,0.61309999,-0.132,0.07,-0.15800001
1.0,0.44169998,-0.47079998,0.45659998,0.61199999,-0.14400001,0.036,-0.16600001
1.0,0.44369999,-0.46829998,0.4585,0.611,-0.15400001,0.009,-0.16500001
1.0,0.4456,-0.4666,0.4594,0.6103,-0.16800001,0.006,-0.156
1.0,0.44729999,-0.46559998,0.4594,0.6099,-0.185,0.01,-0.14
1.0,0.44859999,-0.46499997,0.45859998,0.6099,-0.19600001,0.014,-0.12900001
1.0,0.44959998,-0.4648,0.45729998,0.6103,-0.20500001,0.02,-0.125
1.0,0.45009997,-0.46489999,0.45559999,0.61119998,-0.21400002,0.019,-0.13000001
1.0,0.45009997,-0.46499997,0.45369998,0.61250001,-0.223,0.02,-0.13700001
1.0,0.44959998,-0.46509999,0.45179999,0.6142,-0.22700001,0.018,-0.148
1.0,0.44849998,-0.46499997,0.4499,0.6164,-0.22900002,0.011,-0.15900001
1.0,0.44689998,-0.4648,0.44829997,0.61899996,-0.22400001,0.005,-0.16600001
1.0,0.44479999,-0.46419999,0.44689998,0.62189996,-0.22200002,-0.003,-0.17200001
1.0,0.44219998,-0.46329999,0.44579998,0.62519997,-0.21400002,-0.016,-0.17900001
1.0,0.4391,-0.46199998,0.44509998,0.62879997,-0.20400001,-0.028,-0.186
1.0,0.4357,-0.4605,0.4447,0.63260001,-0.19600001,-0.041,-0.193
1.0,0.4321,-0.45859998,0.44459999,0.6365,-0.186,-0.051,-0.2
1.0,0.42819998,-0.45639998,0.44479999,0.64059997,-0.17900001,-0.05,-0.20500001
1.0,0.42429999,-0.454,0.44509998,0.64459997,-0.17,-0.047,-0.20400001
1.0,0.42029998,-0.45139998,0.44569999,0.64859998,-0.15900001,-0.039,-0.2
1.0,0.41639999,-0.4488,0.44639999,0.65239996,-0.15400001,-0.029,-0.193
1.0,0.4127,-0.44619998,0.4472,0.65609998,-0.155,-0.015,-0.18900001
1.0,0.40919998,-0.44349998,0.44799998,0.6595,-0.15300001,0.0,-0.192
1.0,0.40609998,-0.44079998,0.44889998,0.66259998,-0.155,0.013,-0.20600002
1.0,0.4034,-0.43829998,0.44979998,0.66530001,-0.162,0.012,-0.21900001
1.0,0.40089998,-0.4359,0.45089999,0.66769999,-0.16600001,0.001,-0.22200002
1.0,0.3985,-0.43359998,0.4522,0.66979998,-0.16600001,-0.028,-0.21100001
1.0,0.39609998,-0.4314,0.45369998,0.67149997,-0.16000001,-0.068,-0.19000001
1.0,0.39379999,-0.42919999,0.45539999,0.67309999,-0.162,-0.09900001,-0.16800001
1.0,0.39129999,-0.4271,0.45749998,0.67460001,-0.17500001,-0.126,-0.14
1.0,0.38839999,-0.4249,0.45989999,0.67589998,-0.19100001,-0.132,-0.112
1.0,0.38509998,-0.42249998,0.4628,0.67729998,-0.21000001,-0.12900001,-0.09200001
1.0,0.38119999,-0.4199,0.46629998,0.67879999,-0.23300001,-0.11100001,-0.072
1.0,0.37669998,-0.41679999,0.47039998,0.68039995,-0.257,-0.074,-0.058
1.0,0.37149999,-0.41319999,0.47509998,0.6821,-0.27400002,-0.02,-0.043
1.0,0.3655,-0.40889999,0.4806,0.68419999,-0.29800001,0.032,-0.025
1.0,0.35869998,-0.40369999,0.48659998,0.68659997,-0.30600002,0.067,-0.015
1.0,0.35099998,-0.39789999,0.49309999,0.6893,-0.31900001,0.10300001,-0.008
1.0,0.34239998,-0.39109999,0.50010002,0.69239998,-0.32800001,0.148,-0.009
1.0,0.333,-0.38369998,0.50729996,0.69589996,-0.32300001,0.177,-0.01
1.0,0.32279998,-0.37579998,0.51449996,0.6997,-0.31200001,0.21100001,-0.007
1.0,0.31189999,-0.36759999,0.52139997,0.704,-0.29200003,0.22600001,-0.012
1.0,0.30039999,-0.35929999,0.52770001,0.70849997,-0.27000001,0.21400002,-0.023
1.0,0.28849998,-0.3513,0.5334,0.71319997,-0.24300002,0.18800001,-0.037
1.0,0.27629998,-0.3439,0.53819996,0.71799999,-0.21100001,0.162,-0.055
1.0,0.26409999,-0.3373,0.54210001,0.72279996,-0.18700001,0.13500001,-0.063
1.0,0.25169998,-0.33179998,0.54479998,0.7277,-0.17300001,0.112,-0.066
1.0,0.2393,-0.3274,0.5467,0.73249996,-0.156,0.08800001,-0.074
1.0,0.22669999,-0.32389998,0.54769999,0.73719996,-0.15300001,0.064,-0.08000001
1.0,0.2137,-0.3215,0.54789996,0.74199998,-0.16800001,0.056,-0.082
1.0,0.20029999,-0.31979999,0.54750001,0.74680001,-0.16100001,0.05,-0.10300001
1.0,0.1864,-0.31900001,0.54649997,0.75139999,-0.13100001,0.024,-0.14300001
1.0,0.17189999,-0.31909999,0.54499996,0.75589997,-0.123,0.013,-0.16600001
1.0,0.1567,-0.3197,0.54329997,0.76019996,-0.134,0.025,-0.16800001
1.0,0.1406,-0.3206,0.54140002,0.76429999,-0.15300001,0.047,-0.16700001
1.0,0.1236,-0.32170001,0.53929996,0.7683,-0.16900001,0.081,-0.17200001
1.0,0.1058,-0.32299998,0.53689998,0.77199996,-0.15700001,0.108,-0.186
1.0,0.0873,-0.32429999,0.5345,0.7755,-0.125,0.12800001,-0.21700001
1.0,0.0683,-0.3256,0.53200001,0.77849996,-0.083,0.13800001,-0.24600001
1.0,0.0489,-0.32709998,0.52950001,0.78109998,-0.064,0.142,-0.26800001
1.0,0.0291,-0.32839999,0.52709997,0.78310001,-0.071,0.155,-0.29500002
1.0,0.0091,-0.32969999,0.5248,0.78459996,-0.06,0.16700001,-0.31300002
1.0,-0.0109,-0.3308,0.52249998,0.78560001,-0.026,0.163,-0.32700002
1.0,-0.0309,-0.3317,0.5205,0.78609997,0.001,0.15700001,-0.33600003
1.0,-0.0507,-0.33229998,0.51859999,0.78599995,0.026,0.15300001,-0.34
1.0,-0.0702,-0.33249998,0.51699996,0.78549999,0.048,0.13600001,-0.347
1.0,-0.0892,-0.3321,0.51569998,0.78459996,0.075,0.11800001,-0.35200003
1.0,-0.1077,-0.3312,0.51459998,0.7834,0.101,0.1,-0.35800001
1.0,-0.1257,-0.32969999,0.51379997,0.78189999,0.12800001,0.08000001,-0.36600003
1.0,-0.14289999,-0.32749999,0.5133,0.7802,0.156,0.06500001,-0.37800002
1.0,-0.1595,-0.32479998,0.51309997,0.77819997,0.17900001,0.049,-0.39100003
1.0,-0.1752,-0.3215,0.5133,0.77609998,0.20900001,0.025,-0.40800002
1.0,-0.1901,-0.3179,0.51379997,0.7737,0.23500001,0.008,-0.41900003
1.0,-0.2042,-0.31389999,0.51459998,0.7712,0.25800002,-0.001,-0.42600003
1.0,-0.2174,-0.3096,0.5158,0.76859999,0.27600002,-0.003,-0.42200002
1.0,-0.22989999,-0.30500001,0.51719999,0.7658,0.29300001,0.002,-0.41800001
1.0,-0.24159999,-0.3001,0.51889998,0.76299995,0.30000001,0.017,-0.40700001
1.0,-0.25259998,-0.29479998,0.52090001,0.76010001,0.30600002,0.031,-0.38800001
1.0,-0.26299998,-0.28909999,0.52309996,0.75729996,0.31,0.041,-0.37400001
1.0,-0.27269998,-0.28290001,0.52539998,0.75449997,0.31800002,0.036,-0.36400002
1.0,-0.28189999,-0.2762,0.52789998,0.75189996,0.32100001,0.033,-0.36000001
1.0,-0.29049999,-0.26909998,0.53049999,0.74939996,0.324,0.032,-0.35800001
1.0,-0.29859999,-0.26139998,0.53319997,0.74699998,0.32800001,0.031,-0.35500002
1.0,-0.30629998,-0.25319999,0.53600001,0.74469995,0.32600001,0.035,-0.34800002
1.0,-0.3134,-0.2445,0.53899997,0.74250001,0.32700002,0.042,-0.34300002
1.0,-0.31999999,-0.23529999,0.54219997,0.74039996,0.32500002,0.063,-0.33200002
1.0,-0.32609999,-0.22549999,0.54549998,0.73829997,0.32200003,0.083,-0.31800002
1.0,-0.3317,-0.21529999,0.54899997,0.73629999,0.32000002,0.09200001,-0.29700002
1.0,-0.33669999,-0.20469999,0.55259997,0.73429996,0.31900001,0.104,-0.26500002
1.0,-0.34109998,-0.1937,0.55629998,0.7324,0.31600001,0.11800001,-0.23500001
1.0,-0.345,-0.18259999,0.56009996,0.7306,0.32100001,0.13000001,-0.21900001
1.0,-0.34809998,-0.1715,0.56400001,0.7288,0.324,0.15300001,-0.20400001
1.0,-0.3504,-0.16049999,0.56809998,0.72709996,0.31600001,0.17400001,-0.18700001
1.0,-0.35179999,-0.14989999,0.57229996,0.72529995,0.31300002,0.19600001,-0.17900001
1.0,-0.3524,-0.13959999,0.57669997,0.72359997,0.30000001,0.20700002,-0.178
1.0,-0.3522,-0.12989999,0.58129996,0.72179997,0.289,0.21700001,-0.17900001
1.0,-0.35119998,-0.1206,0.58609998,0.71999997,0.27900001,0.23200001,-0.17400001
1.0,-0.3495,-0.11189999,0.59119999,0.71810001,0.26300001,0.24200001,-0.16500001
1.0,-0.34719998,-0.10349999,0.59630001,0.71619999,0.24200001,0.259,-0.147
1.0,-0.34439999,-0.0953,0.60170001,0.71419996,0.21700001,0.287,-0.119
1.0,-0.34129998,-0.0873,0.60699999,0.71219999,0.192,0.30900002,-0.09500001
1.0,-0.338,-0.0791,0.61229998,0.71020001,0.163,0.33600003,-0.066
1.0,-0.3346,-0.0705,0.61750001,0.70819998,0.132,0.354,-0.035
1.0,-0.33129999,-0.0615,0.62259996,0.7062,0.112,0.35600001,-0.003
1.0,-0.32819998,-0.0518,0.62739998,0.70409995,0.09200001,0.354,0.031
1.0,-0.32529998,-0.0414,0.63199997,0.70209998,0.06900001,0.35200003,0.06500001
1.0,-0.32269999,-0.0304,0.63620001,0.69999999,0.039,0.34400001,0.096
1.0,-0.32049999,-0.0185,0.6401,0.6979,0.012,0.32000002,0.126
1.0,-0.3188,-0.0058,0.64340001,0.69580001,-0.001,0.27500001,0.13800001
1.0,-0.31739998,0.0072,0.64639997,0.69369996,-0.004,0.21600001,0.13500001
1.0,-0.3163,0.0206,0.64899999,0.69150001,-0.012,0.141,0.12200001
1.0,-0.31569999,0.0343,0.65109998,0.68919998,-0.021,0.086,0.108
1.0,-0.3154,0.0482,0.653,0.6868,-0.025,0.037,0.094
1.0,-0.3154,0.0621,0.65450001,0.68419999,-0.037,-0.012,0.082
1.0,-0.31579998,0.076,0.65579998,0.6814,-0.051,-0.047,0.075
1.0,-0.31649998,0.08989999,0.65679997,0.67839998,-0.07,-0.062,0.071
1.0,-0.31759998,0.1038,0.65749997,0.67519999,-0.09,-0.056,0.071
1.0,-0.31889999,0.1178,0.65789998,0.67189997,-0.11700001,-0.035,0.08000001
1.0,-0.32049999,0.1321,0.65789998,0.66839999,-0.14600001,0.001,0.094
1.0,-0.3224,0.14659999,0.65749997,0.6649,-0.17200001,0.045,0.11100001
1.0,-0.32439998,0.16139999,0.65669996,0.6613,-0.192,0.083,0.12200001
1.0,-0.32659999,0.17639999,0.65529996,0.6577,-0.21000001,0.11800001,0.13100001
1.0,-0.32879999,0.19159999,0.6534,0.65429997,-0.23300001,0.13900001,0.13500001
1.0,-0.33089998,0.2067,0.65109998,0.65090001,-0.25400001,0.15100001,0.13000001
1.0,-0.33289999,0.22149999,0.64829999,0.64779997,-0.266,0.156,0.12100001
1.0,-0.33469999,0.2359,0.6451,0.64499998,-0.27800003,0.147,0.11000001
1.0,-0.33629999,0.2498,0.64160001,0.64239997,-0.289,0.13100001,0.09900001
1.0,-0.33759999,0.26280001,0.63789999,0.64019996,-0.296,0.104,0.087
1.0,-0.33879998,0.27509999,0.63389999,0.6383,-0.30100003,0.08000001,0.082
1.0,-0.33989999,0.28650001,0.62989998,0.63679999,-0.31500003,0.054,0.079
1.0,-0.34109998,0.29699999,0.6257,0.6354,-0.33100003,0.027,0.078
1.0,-0.34239998,0.30679998,0.62129998,0.63429999,-0.34300002,0.001,0.078
1.0,-0.34399998,0.31599998,0.61689997,0.63330001,-0.36200002,-0.019,0.079
1.0,-0.34599999,0.32449999,0.6124,0.63229996,-0.37900001,-0.033,0.078
1.0,-0.3484,0.33249998,0.60769999,0.63139999,-0.39400002,-0.036,0.075
1.0,-0.3513,0.34,0.60280001,0.63029999,-0.40800002,-0.039,0.071
1.0,-0.35479999,0.34709999,0.59789997,0.62919998,-0.42200002,-0.038,0.061
1.0,-0.35879999,0.3538,0.59289998,0.62799996,-0.43100002,-0.036,0.053
1.0,-0.3633,0.35999998,0.58779997,0.62659997,-0.43800002,-0.025,0.046
1.0,-0.36829999,0.366,0.58270001,0.62509996,-0.44500002,-0.014,0.037
1.0,-0.37369999,0.37149999,0.57749999,0.62339997,-0.44800001,0.0,0.025
1.0,-0.3795,0.37649998,0.5722,0.62180001,-0.44300002,0.031,0.008
1.0,-0.3856,0.3809,0.56690001,0.62019998,-0.43500003,0.046,-0.013
1.0,-0.39179999,0.3845,0.5618,0.61869997,-0.42800003,0.048,-0.042
1.0,-0.39829999,0.3874,0.55680001,0.61729997,-0.42200002,0.045,-0.066
1.0,-0.40489998,0.3897,0.55189997,0.616,-0.41600001,0.046,-0.087
1.0,-0.41159999,0.39109999,0.54729998,0.61469996,-0.40700001,0.044,-0.10300001
1.0,-0.41839999,0.3919,0.54289997,0.6135,-0.40200001,0.038,-0.115
1.0,-0.4253,0.39199999,0.53869998,0.6124,-0.40200001,0.037,-0.126
1.0,-0.43249997,0.3915,0.53469998,0.61119998,-0.39800003,0.056,-0.13800001
1.0,-0.43969998,0.39049998,0.5309,0.61000001,-0.38100001,0.07300001,-0.16000001
1.0,-0.44709998,0.3888,0.52719998,0.60890001,-0.36200002,0.072,-0.19000001
1.0,-0.45449999,0.3863,0.52399999,0.60789996,-0.347,0.061,-0.22400001
1.0,-0.46179998,0.3831,0.52099997,0.60689998,-0.333,0.049,-0.24800001
1.0,-0.4691,0.3793,0.51840001,0.60589999,-0.32100001,0.042,-0.26700002
1.0,-0.47639999,0.3748,0.51620001,0.6049,-0.31200001,0.04,-0.28300002
1.0,-0.48359999,0.3698,0.51440001,0.6038,-0.30400002,0.045,-0.29100001
1.0,-0.49079999,0.36429998,0.51289999,0.60259998,-0.296,0.06,-0.29800001
1.0,-0.498,0.35839999,0.51169997,0.6013,-0.28100002,0.064,-0.30800003
1.0,-0.50519997,0.3522,0.51069999,0.59979999,-0.26900002,0.067,-0.32000002
1.0,-0.51239997,0.34579998,0.50999999,0.59799999,-0.25300002,0.075,-0.333
1.0,-0.51969999,0.33929998,0.50940001,0.59599996,-0.23700002,0.07700001,-0.34600002
1.0,-0.52700001,0.33269998,0.50889999,0.59369999,-0.22000001,0.082,-0.35900003
1.0,-0.53429997,0.32609999,0.50849998,0.59109998,-0.19900002,0.09100001,-0.37100002
1.0,-0.54149997,0.31939998,0.50830001,0.58829999,-0.17200001,0.104,-0.38700002
1.0,-0.54859996,0.3127,0.50830001,0.58539999,-0.15200001,0.119,-0.39800003
1.0,-0.55549997,0.3057,0.50870001,0.58230001,-0.12800001,0.13700001,-0.40500003
1.0,-0.56209999,0.2985,0.50929999,0.57910001,-0.10300001,0.15800001,-0.41500002
1.0,-0.56830001,0.29080001,0.5104,0.57599998,-0.08400001,0.17600001,-0.42600003
1.0,-0.574,0.2827,0.51209998,0.5729,-0.058,0.19400001,-0.43500003
1.0,-0.57919997,0.27419999,0.51429999,0.56979996,-0.044,0.19900002,-0.44100001
1.0,-0.58379996,0.26530001,0.51709998,0.5668,-0.021,0.20900001,-0.44200003
1.0,-0.58779997,0.25599998,0.52059996,0.56369996,-0.003,0.22200002,-0.43300003
1.0,-0.59130001,0.2465,0.52459997,0.56059998,0.007,0.22500001,-0.41000003
1.0,-0.59419996,0.2368,0.5291,0.55739999,0.031,0.23500001,-0.37
1.0,-0.59670001,0.2269,0.53399998,0.55409998,0.046,0.25300002,-0.34
1.0,-0.5988,0.21709999,0.53920001,0.55079997,0.051,0.25600001,-0.317
1.0,-0.60049999,0.2075,0.54449999,0.5474,0.068,0.24200001,-0.30100003
1.0,-0.60189998,0.1981,0.5499,0.54399997,0.098,0.21900001,-0.29300001
1.0,-0.60280001,0.18889999,0.55549997,0.54049999,0.12900001,0.185,-0.28
1.0,-0.6031,0.17989999,0.56150001,0.537,0.17200001,0.14600001,-0.259
1.0,-0.60280001,0.1709,0.5679,0.53359997,0.19100001,0.1,-0.23700002
1.0,-0.602,0.1621,0.57449996,0.5302,0.185,0.051,-0.20700002
1.0,-0.60079998,0.1539,0.5812,0.52669996,0.171,0.013,-0.17200001
1.0,-0.5995,0.14649999,0.58770001,0.523,0.177,-0.014,-0.13700001
1.0,-0.59819996,0.14019999,0.59389997,0.51919997,0.177,-0.045,-0.08000001
1.0,-0.597,0.1348,0.59969997,0.51529998,0.18000001,-0.071,-0.033
1.0,-0.59609997,0.1305,0.60499996,0.51129997,0.17200001,-0.08800001,0.01
1.0,-0.59549999,0.12719999,0.60969996,0.5072,0.19900002,-0.09100001,0.042
1.0,-0.59499997,0.1244,0.61409998,0.50309998,0.20700002,-0.104,0.063
1.0,-0.59469998,0.1221,0.61829996,0.49899998,0.20100001,-0.096,0.074
1.0,-0.59419996,0.11979999,0.62239999,0.49499997,0.20700002,-0.07,0.071
1.0,-0.59359998,0.1175,0.62659997,0.49089998,0.19700001,-0.04,0.062
1.0,-0.59279996,0.11499999,0.63099998,0.4869,0.192,0.001,0.048
1.0,-0.59179997,0.11229999,0.63549995,0.48279998,0.18400002,0.037,0.045
1.0,-0.59060001,0.1095,0.64019996,0.47869998,0.185,0.062,0.053
1.0,-0.58939999,0.1067,0.64480001,0.4745,0.18100001,0.08400001,0.064
1.0,-0.58819997,0.10399999,0.6494,0.47039998,0.17,0.10700001,0.07600001
1.0,-0.58700001,0.1013,0.65389997,0.46629998,0.149,0.12400001,0.08400001
1.0,-0.58599997,0.0989,0.65810001,0.46219999,0.123,0.132,0.089
1.0,-0.5851,0.0968,0.66189998,0.45819998,0.112,0.13800001,0.087
1.0,-0.5844,0.095,0.66549999,0.45429999,0.123,0.133,0.082
1.0,-0.58359998,0.09339999,0.66889995,0.4506,0.134,0.13500001,0.085
1.0,-0.58289999,0.0919,0.67219996,0.447,0.13800001,0.13100001,0.09
1.0,-0.58209997,0.0905,0.6753,0.4436,0.14500001,0.11100001,0.09100001
1.0,-0.5812,0.0891,0.67839998,0.44029999,0.15000001,0.09200001,0.089
1.0,-0.57999998,0.0875,0.68169999,0.43699998,0.163,0.07700001,0.081
1.0,-0.57849997,0.0856,0.68529999,0.4339,0.16000001,0.049,0.071
1.0,-0.5765,0.0834,0.68919998,0.43069997,0.15100001,0.025,0.072
1.0,-0.57429999,0.0812,0.69330001,0.4276,0.14300001,0.007,0.082
1.0,-0.57190001,0.07889999,0.69749999,0.4244,0.132,-0.001,0.09900001
1.0,-0.56940001,0.0766,0.70169997,0.42109999,0.126,-0.01,0.10700001
1.0,-0.56690001,0.0744,0.70589995,0.4179,0.11300001,-0.02,0.11800001
1.0,-0.56459999,0.0726,0.7098,0.41459998,0.096,-0.023,0.13000001
1.0,-0.56269997,0.0712,0.71340001,0.4113,0.089,-0.028,0.134
1.0,-0.56110001,0.0703,0.71649998,0.40809998,0.085,-0.035,0.13100001
1.0,-0.56009996,0.0699,0.71919996,0.405,0.082,-0.039,0.12200001
1.0,-0.55939996,0.07009999,0.72139996,0.40199998,0.08400001,-0.043,0.112
1.0,-0.5589,0.0708,0.72329998,0.39909998,0.09,-0.051,0.104
1.0,-0.55869997,0.0719,0.72490001,0.3964,0.101,-0.06,0.1
1.0,-0.55849999,0.0734,0.72619998,0.39379999,0.109,-0.071,0.104
1.0,-0.55839998,0.0752,0.7274,0.3915,0.11800001,-0.086,0.112
1.0,-0.5582,0.0773,0.72850001,0.38939998,0.11800001,-0.098,0.11700001
1.0,-0.55790001,0.0795,0.72939998,0.38749999,0.11300001,-0.11000001,0.115
1.0,-0.55769998,0.08199999,0.73030001,0.3858,0.115,-0.11700001,0.11100001
1.0,-0.55729997,0.0845,0.73109996,0.38429999,0.12200001,-0.12200001,0.10700001
1.0,-0.55680001,0.0872,0.73179996,0.38299999,0.11800001,-0.125,0.10200001
1.0,-0.55619997,0.09,0.7324,0.382,0.112,-0.126,0.098
1.0,-0.55549997,0.0929,0.73299998,0.3811,0.104,-0.127,0.09200001
1.0,-0.55469996,0.0958,0.73359996,0.38049999,0.089,-0.123,0.083
1.0,-0.55369997,0.0988,0.73409998,0.3802,0.07300001,-0.119,0.075
1.0,-0.55259997,0.1019,0.73460001,0.38009998,0.066,-0.11400001,0.074
1.0,-0.55129999,0.1049,0.73509997,0.3802,0.061,-0.108,0.07600001
1.0,-0.54969996,0.10789999,0.73569995,0.38049999,0.047,-0.09900001,0.081
1.0,-0.54799998,0.1109,0.73619998,0.3811,0.037,-0.097,0.086
1.0,-0.54619998,0.1139,0.7367,0.38189998,0.023,-0.08400001,0.08800001
1.0,-0.5442,0.11669999,0.73719996,0.38299999,0.016,-0.078,0.085
1.0,-0.54219997,0.1196,0.73749995,0.38419998,0.01,-0.067,0.07
1.0,-0.54009998,0.12249999,0.7378,0.3856,0.016,-0.063,0.053
1.0,-0.5381,0.12549999,0.73799998,0.3872,0.019,-0.06,0.046
1.0,-0.53609997,0.1285,0.73809999,0.3888,0.012,-0.056,0.04
1.0,-0.5341,0.13169999,0.73799998,0.3906,0.016,-0.052,0.035
1.0,-0.53219998,0.13509999,0.7378,0.39249998,0.021,-0.055,0.035
1.0,-0.53029996,0.13859999,0.7374,0.39449999,0.03,-0.055,0.036
1.0,-0.52829999,0.14209999,0.73710001,0.39659998,0.033,-0.06,0.04
1.0,-0.52609998,0.14569999,0.7367,0.39879999,0.046,-0.055,0.045
1.0,-0.5237,0.14919999,0.73640001,0.40129998,0.057,-0.047,0.04
1.0,-0.52099997,0.15279999,0.73609996,0.40399998,0.06500001,-0.036,0.03
1.0,-0.51809996,0.1565,0.73579997,0.40689999,0.06500001,-0.03,0.013
1.0,-0.51489997,0.1604,0.73539996,0.41,0.072,-0.019,-0.01
1.0,-0.5115,0.1644,0.73519999,0.41319999,0.082,-0.008,-0.029
1.0,-0.50760001,0.16849999,0.73499995,0.41659999,0.075,0.019,-0.036
1.0,-0.50339997,0.17289999,0.73469996,0.42029998,0.054,0.06900001,-0.033
1.0,-0.49899998,0.17749999,0.73439997,0.4242,0.045,0.123,-0.032
1.0,-0.49429998,0.18239999,0.73399997,0.42829999,0.032,0.178,-0.032
1.0,-0.4894,0.1875,0.73339999,0.43269998,0.024,0.24400002,-0.036
1.0,-0.4842,0.1927,0.73269999,0.4375,0.008,0.29000002,-0.039
1.0,-0.4788,0.198,0.73179996,0.44239998,-0.016,0.32200003,-0.034
1.0,-0.47329998,0.2034,0.73079997,0.44759998,-0.04,0.34200001,-0.029
1.0,-0.46769997,0.2087,0.72969997,0.45289999,-0.058,0.33700001,-0.026
1.0,-0.4621,0.2137,0.72850001,0.45819998,-0.049,0.26200002,-0.05
1.0,-0.45649999,0.2183,0.72729999,0.46349999,-0.028,0.16600001,-0.07
1.0,-0.45089999,0.2225,0.72619998,0.46849999,-0.007,0.079,-0.083
1.0,-0.4454,0.2262,0.72549999,0.47309998,-0.004,0.0,-0.087
1.0,-0.4402,0.22929999,0.72499996,0.47729999,-0.01,-0.042,-0.083
1.0,-0.43529999,0.23199999,0.72479999,0.48089999,-0.011,-0.063,-0.08000001
1.0,-0.43089998,0.2341,0.72479999,0.48379999,-0.002,-0.059,-0.07300001
1.0,-0.4267,0.2357,0.72509998,0.48619998,0.006,-0.036,-0.08400001
1.0,-0.42279997,0.2366,0.72579998,0.48809999,0.017,-0.02,-0.10200001
1.0,-0.4192,0.23709999,0.72679996,0.48949999,0.031,-0.003,-0.11300001
1.0,-0.4156,0.23709999,0.72819996,0.49049997,0.044,-0.004,-0.115
1.0,-0.41229999,0.2366,0.7299,0.491,0.039,-0.008,-0.11300001
1.0,-0.4091,0.2359,0.73179996,0.49109998,0.047,-0.006,-0.10600001
1.0,-0.40609998,0.235,0.73399997,0.49089998,0.071,-0.011,-0.096
1.0,-0.4032,0.23369999,0.73640001,0.49039999,0.10600001,-0.009,-0.082
1.0,-0.40019998,0.2321,0.73890001,0.48969999,0.13900001,-0.019,-0.079
1.0,-0.3971,0.23029999,0.74149996,0.48909998,0.15800001,-0.042,-0.087
1.0,-0.39389998,0.22849999,0.74419999,0.48839998,0.18100001,-0.054,-0.08800001
1.0,-0.39069998,0.22669999,0.74689996,0.4878,0.19100001,-0.057,-0.078
1.0,-0.3872,0.22499999,0.74949998,0.48729998,0.20600002,-0.061,-0.062
1.0,-0.38369998,0.2235,0.75199997,0.48709998,0.20900001,-0.068,-0.037
1.0,-0.38,0.22209999,0.75419998,0.48709998,0.21000001,-0.071,-0.013
1.0,-0.37619999,0.2209,0.75629997,0.48729998,0.215,-0.06900001,0.018
1.0,-0.37239999,0.2198,0.75809997,0.48799998,0.22700001,-0.056,0.028
1.0,-0.3682,0.21859999,0.7597,0.48909998,0.23300001,-0.057,0.021
1.0,-0.36379999,0.21709999,0.76129997,0.49069998,0.21900001,-0.058,-0.017
1.0,-0.359,0.2154,0.76279998,0.49269998,0.20100001,-0.06500001,-0.051
1.0,-0.354,0.21339999,0.76419997,0.49489999,0.185,-0.06,-0.075
1.0,-0.3488,0.2113,0.76559997,0.49739999,0.171,-0.047,-0.067
1.0,-0.3434,0.20899999,0.76699996,0.5,0.16700001,-0.027,-0.041
1.0,-0.338,0.2067,0.76819998,0.50269997,0.15400001,-0.009,-0.029
1.0,-0.3328,0.20449999,0.76929998,0.5054,0.14,0.016,-0.02
1.0,-0.3276,0.2023,0.77029997,0.50809997,0.141,0.043,-0.027
1.0,-0.32259998,0.19999999,0.7712,0.51089996,0.127,0.057,-0.047
1.0,-0.31739998,0.19759999,0.77219999,0.51359999,0.115,0.06,-0.07600001
1.0,-0.31219998,0.19489999,0.77329999,0.51620001,0.096,0.057,-0.09100001
1.0,-0.30679998,0.192,0.7744,0.51879996,0.058,0.051,-0.104
1.0,-0.30159998,0.189,0.77559996,0.52099997,0.027,0.046,-0.108
1.0,-0.29679999,0.18619999,0.77689999,0.523,0.008,0.031,-0.1
1.0,-0.29260001,0.1839,0.778,0.52450001,0.009,0.016,-0.087
1.0,-0.28909999,0.18189999,0.7791,0.5255,0.027,0.008,-0.06900001
1.0,-0.2859,0.18009999,0.78009999,0.52639997,0.054,0.006,-0.067
1.0,-0.28290001,0.17839999,0.78119999,0.52700001,0.089,-0.004,-0.072
1.0,-0.2798,0.1762,0.7823,0.52759999,0.089,-0.007,-0.083
1.0,-0.2766,0.17369999,0.78359997,0.52829999,0.06,0.0,-0.10300001
1.0,-0.273,0.1705,0.78509998,0.52899998,0.038,0.004,-0.12100001
1.0,-0.26899999,0.16679999,0.78679997,0.52969998,0.002,0.013,-0.126
1.0,-0.26499999,0.1629,0.78849995,0.53049999,-0.035,0.02,-0.12400001
1.0,-0.26089999,0.15889999,0.7902,0.53119999,-0.027,0.027,-0.116
1.0,-0.25689998,0.1548,0.79179996,0.53179997,-0.016,0.03,-0.10200001
1.0,-0.25310001,0.1507,0.79339999,0.53249997,-0.026,0.032,-0.08400001
1.0,-0.24949999,0.14649999,0.79479998,0.53319997,-0.021,0.044,-0.067
1.0,-0.24589999,0.14219999,0.79619998,0.5341,0.014,0.041,-0.062
1.0,-0.242,0.1374,0.79749995,0.5352,0.021,0.039,-0.068
1.0,-0.2377,0.132,0.79879999,0.53639996,0.004,0.036,-0.08000001
1.0,-0.2331,0.12619999,0.80019999,0.53780001,-0.008,0.041,-0.075
1.0,-0.22829999,0.12,0.80149996,0.53939998,-0.042,0.061,-0.06500001
1.0,-0.2236,0.11369999,0.80269998,0.54089999,-0.044,0.05,-0.07
1.0,-0.21859999,0.1073,0.80399996,0.54229999,-0.047,0.071,-0.047
1.0,-0.2139,0.1008,0.80509996,0.5438,-0.018,0.07,-0.02
1.0,-0.20919999,0.0941,0.80619997,0.54530001,-0.014,0.08800001,-0.024
1.0,-0.20389999,0.0869,0.80719995,0.54699999,0.12900001,0.072,0.02
1.0,-0.19769999,0.0791,0.80799997,0.5492,0.133,0.089,0.098
1.0,-0.19119999,0.07099999,0.80869997,0.55159998,0.052,0.09900001,0.105
1.0,-0.18449999,0.0629,0.80909997,0.55430001,0.10600001,0.10200001,0.10600001
1.0,-0.1776,0.0547,0.80919999,0.55720001,0.14600001,0.12,0.163
1.0,-0.17019999,0.0461,0.80899996,0.56059998,0.11700001,0.13500001,0.16900001
1.0,-0.162,0.0369,0.80860001,0.5643,0.096,0.18300001,0.116
1.0,-0.15349999,0.0276,0.80779999,0.56830001,0.15400001,0.25800002,0.11700001
1.0,-0.145,0.0182,0.80649996,0.57279998,-0.002,0.21000001,0.40400001
1.0,-0.1383,0.0102,0.80449998,0.57739997,-0.101,0.12,0.42500001
1.0,-0.13319999,0.0035,0.80229998,0.58169997,-0.125,0.116,0.21900001
1.0,-0.12909999,-0.0019,0.80009997,0.58569998,-0.062,0.123,0.068
1.0,-0.1251,-0.0069,0.79799998,0.58929998,-0.035,0.12200001,0.012
1.0,-0.1213,-0.0119,0.79609996,0.59259999,-0.079,0.09200001,-0.038
1.0,-0.11759999,-0.017,0.79429996,0.59560001,-0.052,0.034,-0.08000001
1.0,-0.1135,-0.0226,0.79280001,0.59819996,-0.04,0.031,-0.10600001
1.0,-0.1094,-0.0289,0.79149997,0.60049999,-0.108,0.001,-0.14
1.0,-0.1056,-0.0355,0.7902,0.60259998,-0.18400002,0.009,-0.127
1.0,-0.1024,-0.0421,0.78899997,0.60429996,-0.20700002,0.013,-0.012
1.0,-0.09999999,-0.0485,0.7877,0.60589999,-0.19800001,0.011,0.058
1.0,-0.098,-0.055,0.7863,0.6074,-0.19400001,0.059,0.072
1.0,-0.09649999,-0.0611,0.78499997,0.60879999,-0.21300001,0.053,0.098
1.0,-0.0964,-0.0658,0.78380001,0.6099,-0.18000001,0.059,0.061
1.0,-0.097,-0.0693,0.78259999,0.61089998,-0.119,0.09900001,0.027
1.0,-0.09779999,-0.0725,0.78169996,0.61149997,-0.081,0.1,0.024
1.0,-0.0992,-0.07539999,0.78109998,0.6117,-0.16600001,0.09500001,-0.014
1.0,-0.1011,-0.0784,0.7809,0.61129999,-0.15900001,0.11000001,-0.007
1.0,-0.1024,-0.08199999,0.7809,0.61059999,-0.024,0.132,0.043
1.0,-0.103,-0.0857,0.78099996,0.6099,-0.004,0.12800001,0.303
1.0,-0.1043,-0.08859999,0.78079998,0.60939997,0.002,0.09500001,0.44400004
1.0,-0.1061,-0.091,0.78029996,0.60939997,0.075,0.07300001,0.41300002
1.0,-0.1087,-0.0927,0.77969998,0.60949999,-0.062,0.037,0.21900001
1.0,-0.11229999,-0.0937,0.7791,0.60939997,-0.19700001,-0.003,0.047
1.0,-0.1165,-0.0942,0.77899998,0.60879999,-0.22100002,-0.02,-0.147
1.0,-0.1214,-0.09429999,0.77929997,0.6074,-0.24900001,-0.016,-0.25
1.0,-0.1266,-0.09429999,0.7798,0.60569996,-0.16500001,0.038,-0.24200001
1.0,-0.1318,-0.09429999,0.78049999,0.60369998,-0.059,0.075,-0.21000001
1.0,-0.1364,-0.0947,0.78130001,0.60159999,0.004,0.07600001,-0.23500001
1.0,-0.14019999,-0.0957,0.78200001,0.59959996,-0.008,0.083,-0.23
1.0,-0.1432,-0.0971,0.78279996,0.59759998,-0.057,0.041,-0.22500001
1.0,-0.14549999,-0.0989,0.78349996,0.59579998,-0.10300001,-0.011,-0.24300002
1.0,-0.1477,-0.1007,0.78419995,0.59399998,-0.11700001,-0.033,-0.28400001
1.0,-0.1497,-0.1029,0.7852,0.59189999,-0.126,-0.03,-0.30800003
1.0,-0.15109999,-0.1054,0.7863,0.58959997,-0.05,0.024,-0.30100003
1.0,-0.1514,-0.1089,0.78719997,0.58770001,0.024,0.042,-0.245
1.0,-0.15009999,-0.1136,0.7881,0.58590001,0.079,0.11000001,-0.17600001
1.0,-0.1486,-0.11849999,0.78889996,0.58429998,0.03,0.086,-0.005
1.0,-0.1469,-0.1235,0.78939998,0.583,-0.049,0.059,0.025
1.0,-0.1453,-0.1285,0.78979999,0.58179998,-0.098,0.051,-0.018
1.0,-0.1444,-0.1328,0.79009998,0.58059996,-0.16600001,0.042,0.015
1.0,-0.1443,-0.1364,0.79039997,0.5794,-0.097,0.012,0.0
1.0,-0.14479999,-0.1393,0.79069996,0.57819998,-0.12800001,-0.025,-0.005
1.0,-0.146,-0.1415,0.79100001,0.57690001,-0.15000001,-0.018,-0.03
1.0,-0.14749999,-0.1435,0.79159999,0.57529998,-0.11100001,-0.014,-0.156
1.0,-0.1495,-0.14489999,0.79229999,0.57339996,-0.12400001,-0.029,-0.163
1.0,-0.15189999,-0.14579999,0.79319996,0.57120001,-0.07300001,0.006,-0.17
1.0,-0.15439999,-0.14669999,0.79439998,0.56869996,-0.036,0.039,-0.18700001
1.0,-0.1568,-0.1477,0.79569995,0.56599998,-0.072,0.064,-0.17
1.0,-0.15899999,-0.1489,0.79710001,0.56309998,-0.052,0.079,-0.14500001
1.0,-0.16129999,-0.1503,0.7985,0.56009996,-0.058,0.052,-0.17600001
1.0,-0.1635,-0.15169999,0.7999,0.55699998,-0.059,0.043,-0.215
1.0,-0.16589999,-0.1532,0.80129999,0.55379999,-0.08800001,0.028,-0.23300001
1.0,-0.16759999,-0.1551,0.80289996,0.55049998,-0.008,0.12200001,-0.21800001
1.0,-0.1697,-0.1568,0.80439997,0.54719996,-0.047,0.105,-0.11800001
1.0,-0.1716,-0.15889999,0.80589998,0.54369998,-0.049,0.10300001,-0.25100002
1.0,-0.1733,-0.161,0.8075,0.54030001,-0.09,0.086,-0.16900001
1.0,-0.1752,-0.1629,0.8089,0.53689998,-0.025,0.047,-0.07600001
1.0,-0.1769,-0.1648,0.81019998,0.53389996,-0.104,0.058,0.0
1.0,-0.17909999,-0.1663,0.81110001,0.53119999,-0.074,0.12,0.054
1.0,-0.1813,-0.1674,0.81189996,0.52889997,0.036,0.13900001,0.11800001
1.0,-0.1839,-0.16759999,0.8125,0.52709997,-0.047,0.087,0.015
1.0,-0.1865,-0.1674,0.81299996,0.52539998,-0.002,0.086,0.034
1.0,-0.18949999,-0.16659999,0.81349999,0.52380002,-0.09100001,0.10600001,0.061
1.0,-0.19219999,-0.1654,0.81389999,0.5226,0.039,0.104,0.043
1.0,-0.19509999,-0.16409999,0.8143,0.52129996,0.057,0.089,-0.029
1.0,-0.1971,-0.163,0.81470001,0.52029997,0.142,0.20200001,0.013
1.0,-0.19829999,-0.16219999,0.81489998,0.51980001,0.28600001,0.24100001,0.042
1.0,-0.19849999,-0.1619,0.815,0.51959997,0.18100001,0.31600001,0.12900001
1.0,-0.198,-0.1621,0.81479996,0.5201,0.08000001,0.34800002,0.15300001
1.0,-0.197,-0.1628,0.81419998,0.52109998,0.132,0.26900002,0.18400002
1.0,-0.1955,-0.1638,0.8136,0.52239996,0.08400001,0.32000002,0.15300001
1.0,-0.1936,-0.1653,0.81259996,0.52410001,0.066,0.23800001,0.27200001
1.0,-0.19139999,-0.167,0.81159997,0.52599996,-0.007,0.26900002,0.287
1.0,-0.1893,-0.1688,0.81049997,0.52789998,-0.029,0.273,0.289
1.0,-0.1875,-0.17039999,0.80939996,0.52969998,-0.054,0.24100001,0.26300001
1.0,-0.18619999,-0.1716,0.80829996,0.53130001,-0.127,0.24200001,0.27500001
1.0,-0.1855,-0.1725,0.80729997,0.53289998,-0.14300001,0.28100002,0.29300001
1.0,-0.18519999,-0.1732,0.80629998,0.53420001,-0.16100001,0.27900001,0.21700001
1.0,-0.18529999,-0.17369999,0.80539995,0.53539997,-0.15200001,0.27400002,0.13000001
1.0,-0.1857,-0.1741,0.8046,0.5363,-0.12200001,0.252,0.08800001
1.0,-0.18619999,-0.17449999,0.8039,0.53709996,-0.10600001,0.245,0.07700001
1.0,-0.1867,-0.17479999,0.80320001,0.53780001,-0.14600001,0.257,0.062
1.0,-0.18709999,-0.1751,0.80269998,0.53839999,-0.13500001,0.26000002,0.035
1.0,-0.1874,-0.17539999,0.80219996,0.53889996,-0.12900001,0.23500001,-0.013
1.0,-0.18769999,-0.17559999,0.80189997,0.53909999,-0.12100001,0.22800002,0.003
1.0,-0.18779999,-0.176,0.8017,0.53929996,-0.14500001,0.20300001,0.119
1.0,-0.1883,-0.1762,0.80149996,0.53939998,-0.13700001,0.19600001,0.11300001
1.0,-0.1892,-0.17639999,0.80129999,0.53929996,-0.09200001,0.19500001,0.032
1.0,-0.19,-0.1768,0.80140001,0.5388,-0.08000001,0.177,-0.006
1.0,-0.1909,-0.17739999,0.80159998,0.53799999,-0.071,0.17200001,0.018
1.0,-0.192,-0.17819999,0.80189997,0.53689998,-0.036,0.17300001,0.05
1.0,-0.19299999,-0.17899999,0.80229998,0.53549999,-0.017,0.17600001,0.024
1.0,-0.1938,-0.17999999,0.80309999,0.53380001,-0.022,0.17200001,0.012
1.0,-0.1944,-0.1811,0.80399996,0.53179997,-0.02,0.2,0.041
1.0,-0.19509999,-0.1822,0.80519998,0.52939999,-0.008,0.20400001,0.056
1.0,-0.19559999,-0.18339999,0.80649996,0.52669996,-0.028,0.20500001,0.041
1.0,-0.1962,-0.1848,0.8082,0.52349997,-0.01,0.20900001,0.078
1.0,-0.197,-0.18599999,0.80989999,0.51999998,0.043,0.21100001,0.079
1.0,-0.198,-0.1873,0.8118,0.51620001,0.081,0.177,0.054
1.0,-0.1989,-0.18869999,0.81389999,0.51199996,0.066,0.16500001,0.027
1.0,-0.1996,-0.19029999,0.81629997,0.50749999,0.042,0.178,0.019
1.0,-0.20009999,-0.1919,0.81869996,0.50260001,0.04,0.17400001,0.05
1.0,-0.2005,-0.1936,0.82139999,0.49739999,0.087,0.13600001,0.044
1.0,-0.2008,-0.1954,0.82419997,0.49199998,0.078,0.116,0.029
1.0,-0.20109999,-0.1973,0.82709998,0.48619998,0.045,0.116,0.007
1.0,-0.2013,-0.19939999,0.8301,0.48009998,0.061,0.07700001,-0.003
1.0,-0.2013,-0.2016,0.83319998,0.47379997,0.11700001,0.054,-0.014
1.0,-0.20089999,-0.20439999,0.83639997,0.46709999,0.085,0.043,-0.027
1.0,-0.20019999,-0.2076,0.83959997,0.4601,0.036,0.011,0.008
1.0,-0.19939999,-0.21089999,0.84289998,0.45289999,0.017,0.017,0.027
1.0,-0.1987,-0.21429999,0.84619999,0.44549999,-0.029,-0.016,0.044
1.0,-0.19849999,-0.2174,0.84939998,0.43789998,-0.008,-0.036,0.048
1.0,-0.1989,-0.22029999,0.85249996,0.43019998,0.031,-0.079,0.044
1.0,-0.19939999,-0.22309999,0.85539997,0.42249998,-0.004,-0.08800001,0.023
1.0,-0.1998,-0.2261,0.85839999,0.41479999,-0.027,-0.08800001,-0.025
1.0,-0.20019999,-0.22899999,0.86129999,0.4068,0.005,-0.105,-0.032
1.0,-0.2006,-0.2321,0.86409998,0.39879999,0.022,-0.126,0.036
1.0,-0.20109999,-0.23519999,0.86669999,0.39089999,0.02,-0.15000001,0.001
1.0,-0.2015,-0.2386,0.86930001,0.3829,0.097,-0.17,-0.045
1.0,-0.2014,-0.24229999,0.87189996,0.3748,0.06500001,-0.18900001,-0.037
1.0,-0.20109999,-0.2462,0.87439996,0.3664,0.029,-0.19600001,-0.1
1.0,-0.2006,-0.25009999,0.87689996,0.35789999,0.075,-0.177,-0.032
1.0,-0.20009999,-0.25389999,0.8793,0.3495,0.064,-0.18900001,0.13900001
1.0,-0.20029999,-0.25759998,0.88129997,0.3414,-0.007,-0.20200001,0.09900001
1.0,-0.20109999,-0.26119998,0.88319999,0.33339998,0.1,-0.20500001,0.035
1.0,-0.2017,-0.2647,0.88489997,0.32549998,0.16000001,-0.22100002,0.096
1.0,-0.2022,-0.2683,0.8865,0.3179,0.108,-0.215,0.064
1.0,-0.2024,-0.2719,0.88799995,0.31039998,0.098,-0.25600001,-0.011
1.0,-0.2024,-0.2755,0.88959998,0.3026,0.19900002,-0.185,-0.008
1.0,-0.2024,-0.2789,0.89120001,0.2949,0.162,-0.25500003,0.075
1.0,-0.2025,-0.28209999,0.8926,0.2872,0.116,-0.21800001,0.23700002
1.0,-0.2032,-0.28489998,0.89389998,0.2798,0.079,-0.20700002,0.245
1.0,-0.20449999,-0.28709999,0.8951,0.2728,0.15900001,-0.24100001,0.16700001
1.0,-0.2057,-0.28919998,0.8962,0.266,0.20400001,-0.23900001,0.13700001
1.0,-0.2066,-0.2913,0.8973,0.25909999,0.20500001,-0.259,-0.038
1.0,-0.2066,-0.29339999,0.89859998,0.252,0.25800002,-0.252,-0.019
1.0,-0.2066,-0.29549998,0.89989996,0.24489999,0.17200001,-0.27100003,0.038
1.0,-0.2066,-0.29749998,0.9012,0.23779999,0.147,-0.24100001,0.17600001
1.0,-0.20739999,-0.29960001,0.90199995,0.23109999,0.098,-0.24800001,0.16500001
1.0,-0.2087,-0.30149999,0.90270001,0.22459999,0.19800001,-0.24900001,0.11000001
1.0,-0.20999999,-0.3035,0.90329999,0.2183,0.16700001,-0.24400002,0.134
1.0,-0.21159999,-0.30559999,0.90369999,0.2121,0.13000001,-0.215,0.094
1.0,-0.213,-0.30779999,0.90399998,0.206,0.16000001,-0.19400001,0.034
1.0,-0.21409999,-0.31009999,0.90439999,0.1999,0.177,-0.19400001,-0.053
1.0,-0.2147,-0.3125,0.9048,0.1935,0.17,-0.155,0.025
1.0,-0.21509999,-0.315,0.9052,0.18719999,0.101,-0.148,0.03
1.0,-0.21589999,-0.31739998,0.90539998,0.18079999,0.11800001,-0.10200001,0.047
1.0,-0.21689999,-0.31959999,0.90559995,0.17459999,0.10200001,-0.08000001,0.15300001
1.0,-0.21859999,-0.32170001,0.90559995,0.1688,0.072,-0.06900001,0.2
1.0,-0.22109999,-0.32349998,0.90529996,0.1636,0.075,-0.055,0.163
1.0,-0.2242,-0.3251,0.9048,0.1586,0.081,-0.063,0.013
1.0,-0.2271,-0.32659999,0.90439999,0.15359999,0.148,-0.046,-0.045
1.0,-0.22939999,-0.32799998,0.90419996,0.1486,0.18700001,-0.044,-0.019
1.0,-0.2314,-0.3294,0.90399998,0.1436,0.15200001,-0.056,0.002
1.0,-0.2333,-0.33059999,0.90379995,0.1388,0.10600001,-0.038,0.10700001
1.0,-0.23549999,-0.3317,0.90349996,0.1345,0.075,-0.033,0.17400001
1.0,-0.23809999,-0.33269998,0.903,0.13069999,0.078,-0.022,0.18900001
1.0,-0.2412,-0.3335,0.9023,0.1277,0.078,-0.023,0.13500001
1.0,-0.24409999,-0.33429998,0.90149999,0.1251,0.104,-0.024,0.043
1.0,-0.2465,-0.33519998,0.90090001,0.1228,0.15900001,-0.028,-0.044
1.0,-0.2482,-0.33609998,0.90039998,0.1206,0.149,-0.041,0.042
1.0,-0.2498,-0.33699998,0.89989996,0.1188,0.097,-0.05,0.105
1.0,-0.2516,-0.338,0.89919996,0.1174,0.087,-0.049,0.11100001
1.0,-0.2538,-0.33879998,0.89829999,0.1166,0.086,-0.049,0.115
1.0,-0.2563,-0.33969998,0.89739996,0.1162,0.09100001,-0.071,0.068
1.0,-0.25869998,-0.34039998,0.89639997,0.1162,0.11000001,-0.053,0.08000001
1.0,-0.26089999,-0.34109998,0.89539999,0.1166,0.08400001,-0.05,0.155
1.0,-0.26319999,-0.3418,0.8944,0.1174,0.042,-0.07700001,0.15700001
1.0,-0.2656,-0.34239998,0.8933,0.1186,0.072,-0.08800001,0.16800001
1.0,-0.26789999,-0.34289998,0.89219999,0.12019999,0.079,-0.09500001,0.11800001
1.0,-0.26999998,-0.34329998,0.89120001,0.1218,0.116,-0.11800001,0.03
1.0,-0.27179998,-0.3434,0.89039999,0.1235,0.142,-0.11700001,0.15000001
1.0,-0.27359998,-0.34329998,0.88959998,0.12539999,0.09100001,-0.132,0.21800001
1.0,-0.27590001,-0.34299999,0.88869995,0.1278,0.066,-0.14500001,0.259
1.0,-0.27860001,-0.3423,0.8876,0.1309,0.07600001,-0.12400001,0.37900001
1.0,-0.28149998,-0.34169999,0.88639998,0.1347,0.048,-0.18300001,0.36600003
1.0,-0.2843,-0.3409,0.88510001,0.1391,0.064,-0.15400001,0.26800001
1.0,-0.28659999,-0.34009999,0.88389999,0.14379999,0.097,-0.18400002,0.058
1.0,-0.28799999,-0.33929998,0.88299996,0.14829999,0.14500001,-0.19000001,-0.021
1.0,-0.28839999,-0.33859998,0.88239998,0.15269999,0.08800001,-0.19400001,0.14500001
1.0,-0.289,-0.33769998,0.8818,0.1576,-0.006,-0.17,0.26300001
1.0,-0.2902,-0.33660001,0.88079995,0.16309999,0.003,-0.171,0.34100002
1.0,-0.29209998,-0.3351,0.87949997,0.1696,0.054,-0.15300001,0.38100001
1.0,-0.29429999,-0.3335,0.8779,0.177,0.008,-0.109,0.28800002
1.0,-0.29639998,-0.33179998,0.87619996,0.1849,0.015,-0.08400001,0.11300001
1.0,-0.29749998,-0.3301,0.87479997,0.1926,0.12200001,-0.082,-0.15300001
1.0,-0.2974,-0.32819998,0.8739,0.1999,0.177,-0.11300001,-0.21200001
1.0,-0.2969,-0.32600001,0.87329996,0.2068,0.133,-0.134,-0.148
1.0,-0.29620001,-0.32359999,0.87279999,0.21349999,0.048,-0.08800001,0.001
1.0,-0.29589999,-0.32080001,0.87219995,0.22059999,-0.021,-0.041,0.177
1.0,-0.29629999,-0.31759998,0.87119997,0.22829999,-0.035,0.058,0.384
1.0,-0.29789999,-0.31399998,0.86949998,0.2375,-0.05,0.085,0.27200001
1.0,-0.2994,-0.31039998,0.86759996,0.2471,0.057,0.04,-0.17600001
1.0,-0.29960001,-0.30699998,0.86619997,0.2561,0.12900001,0.051,-0.40300003
1.0,-0.2983,-0.30379999,0.8653,0.2642,0.10600001,0.062,-0.28400001
1.0,-0.29659998,-0.3008,0.8646,0.27179998,0.014,0.094,-0.086
1.0,-0.29539999,-0.2976,0.86369997,0.27919999,-0.093,0.162,0.11000001
1.0,-0.29549998,-0.294,0.86229998,0.28729999,-0.034,0.18900001,0.192
1.0,-0.29729998,-0.28939998,0.86019999,0.296,0.078,0.147,0.24700001
1.0,-0.29969999,-0.2845,0.85769999,0.30559999,0.045,0.185,0.026
1.0,-0.3012,-0.2798,0.85529995,0.31509998,-0.022,0.147,-0.31900001
1.0,-0.30159998,-0.27509999,0.85349995,0.32369998,0.089,0.09500001,-0.30700001
1.0,-0.30140001,-0.27019998,0.85209996,0.33149999,0.031,0.072,-0.115
1.0,-0.3012,-0.2651,0.85079998,0.3391,-0.071,0.17,0.10300001
1.0,-0.30149999,-0.25979999,0.84919995,0.34669998,-0.18400002,0.24400002,0.333
1.0,-0.30289999,-0.25389999,0.847,0.35510001,-0.164,0.26300001,0.39100003
1.0,-0.3055,-0.2473,0.84399998,0.3646,-0.014,0.22600001,0.41700003
1.0,-0.30859998,-0.2401,0.84020001,0.37539998,0.019,0.177,0.22100002
1.0,-0.31099999,-0.2333,0.83629996,0.38639998,0.003,0.13800001,-0.17200001
1.0,-0.31189999,-0.2271,0.83269995,0.39679998,0.079,0.064,-0.34
1.0,-0.31099999,-0.2219,0.82989997,0.40649998,0.18900001,0.127,-0.215
1.0,-0.3089,-0.2175,0.8272,0.41579998,0.06,0.12,0.019
1.0,-0.30649999,-0.21349999,0.82419997,0.4253,0.027,0.17200001,0.24100001
1.0,-0.30449998,-0.2096,0.82069999,0.43539998,0.0,0.23,0.41300002
1.0,-0.30320001,-0.20549999,0.81639999,0.4463,-0.029,0.252,0.52700001
1.0,-0.3026,-0.20099999,0.81110001,0.45829999,-0.039,0.27600002,0.58100003
1.0,-0.30269998,-0.19599999,0.80449998,0.47169998,-0.034,0.31100002,0.53300005
1.0,-0.30249998,-0.191,0.79729998,0.486,-0.036,0.28200001,0.20400001
1.0,-0.3012,-0.18629999,0.78999996,0.50029999,0.01,0.17600001,-0.15200001
1.0,-0.2983,-0.1823,0.78299999,0.51419997,0.12100001,0.21400002,-0.133
1.0,-0.294,-0.17919999,0.77629995,0.52789998,0.072,0.27400002,0.026
1.0,-0.28909999,-0.17649999,0.76919997,0.54159999,0.06900001,0.36000001,0.2
1.0,-0.28380001,-0.1742,0.76190001,0.55540001,0.071,0.40500003,0.26100001
1.0,-0.27849999,-0.1717,0.75419998,0.56919998,-0.025,0.42800003,0.273
1.0,-0.27379999,-0.16859999,0.74599999,0.583,-0.072,0.45800003,0.245
1.0,-0.2696,-0.16489999,0.73759997,0.5966,-0.09,0.46300003,0.21400002
1.0,-0.266,-0.1603,0.72899997,0.60979998,-0.06,0.46000001,0.193
1.0,-0.26190001,-0.15619999,0.72079998,0.62239999,0.086,0.46900001,0.09100001
1.0,-0.25689998,-0.15279999,0.713,0.63409996,0.053,0.42500001,0.022
1.0,-0.2518,-0.1497,0.70569998,0.64499998,0.046,0.39400002,0.02
1.0,-0.24659999,-0.1471,0.69879997,0.65499997,0.06900001,0.36600003,0.05
1.0,-0.24149999,-0.1451,0.69229996,0.66429996,0.10600001,0.35800001,0.08400001
1.0,-0.2367,-0.1434,0.68599999,0.6728,0.063,0.31900001,0.09200001
1.0,-0.23249999,-0.1418,0.68000001,0.6807,0.017,0.30200002,0.07600001
1.0,-0.22909999,-0.1398,0.6742,0.68790001,-0.008,0.27900001,0.046
1.0,-0.2261,-0.1383,0.6688,0.69449997,0.06,0.273,0.009
1.0,-0.2225,-0.13789999,0.66389996,0.70039999,0.079,0.26700002,-0.044
1.0,-0.21869999,-0.1382,0.65929997,0.7058,-0.01,0.25600001,-0.047
1.0,-0.2154,-0.1383,0.65489995,0.71090001,-0.011,0.25500003,-0.025
1.0,-0.2122,-0.13849999,0.65079999,0.71559995,0.037,0.25800002,-0.011
1.0,-0.20899999,-0.1388,0.64679998,0.72009999,0.019,0.24900001,-0.001
1.0,-0.2059,-0.1393,0.64279997,0.7245,0.052,0.21400002,-0.05
1.0,-0.20289999,-0.13939999,0.63870001,0.72889996,0.001,0.164,-0.031
1.0,-0.20039999,-0.1388,0.63449997,0.73339999,0.033,0.17300001,-0.032
1.0,-0.1979,-0.1381,0.63010001,0.73789996,0.066,0.19700001,-0.075
1.0,-0.19509999,-0.138,0.62559998,0.74250001,0.085,0.19700001,-0.126
1.0,-0.19149999,-0.1389,0.62119997,0.74689996,0.10600001,0.18400002,-0.16800001
1.0,-0.1875,-0.14039999,0.61689997,0.75129998,0.032,0.15800001,-0.177
1.0,-0.18359999,-0.1418,0.61250001,0.75549996,0.0,0.156,-0.16700001
1.0,-0.17979999,-0.1432,0.60820001,0.75959998,-0.004,0.15900001,-0.17
1.0,-0.1761,-0.1443,0.60399997,0.76370001,-0.037,0.14600001,-0.155
1.0,-0.17299999,-0.1445,0.59969997,0.76769996,-0.086,0.12200001,-0.123
1.0,-0.17109999,-0.14289999,0.59549999,0.77169997,-0.07700001,0.12,-0.087
1.0,-0.1691,-0.1415,0.59130001,0.77559996,0.11300001,0.14,-0.16100001
1.0,-0.1662,-0.14139999,0.58719999,0.77929997,0.033,0.108,-0.18400002
1.0,-0.1629,-0.1418,0.58319998,0.78299999,-0.003,0.093,-0.15800001
1.0,-0.15959999,-0.1424,0.57910001,0.78659999,0.014,0.093,-0.12200001
1.0,-0.15619999,-0.14309999,0.57489997,0.7902,0.021,0.10300001,-0.12800001
1.0,-0.15269999,-0.14389999,0.57069999,0.7938,0.005,0.079,-0.16000001
1.0,-0.1489,-0.1451,0.56650001,0.79729998,0.002,0.074,-0.15100001
1.0,-0.1452,-0.146,0.56209999,0.80089998,-0.101,0.108,-0.047
1.0,-0.1418,-0.1459,0.55790001,0.80449998,0.02,0.093,-0.067
1.0,-0.13849999,-0.14489999,0.55360001,0.8082,0.009,0.06,-0.041
1.0,-0.13589999,-0.1425,0.54899997,0.81219995,-0.21200001,0.06900001,0.078
1.0,-0.13349999,-0.13939999,0.54439998,0.81619996,-0.051,0.027,0.003
1.0,-0.1305,-0.1366,0.5402,0.81999999,0.023,0.023,-0.10200001
1.0,-0.12709999,-0.1344,0.53579998,0.82369995,-0.013,0.07300001,-0.054
1.0,-0.1236,-0.13239999,0.53139997,0.82739997,-0.044,0.049,0.014
1.0,-0.1199,-0.1303,0.52689999,0.83109999,-0.045,0.042,0.0
1.0,-0.11629999,-0.12809999,0.5223,0.83489996,-0.07,0.023,-0.035
1.0,-0.1127,-0.1257,0.51770002,0.83859998,-0.10700001,0.006,-0.08000001
