SensorId, QuatW, QuatX, QuatY, QuatZ, LinAccX (g), LinAccY (g), LinAccZ (g)
4.0,0.80979997,-0.57769996,0.0363,-0.0949,0.005,-0.001,-0.003
4.0,0.80979997,-0.57769996,0.0363,-0.095,0.004,0.0,0.001
4.0,0.80979997,-0.57769996,0.0363,-0.0951,0.0,0.0,0.001
4.0,0.80979997,-0.57769996,0.0362,-0.0951,-0.002,0.001,0.001
4.0,0.80979997,-0.57769996,0.0362,-0.095,-0.002,0.001,-0.004
4.0,0.80979997,-0.57769996,0.0362,-0.095,0.003,-0.001,-0.004
4.0,0.80979997,-0.57769996,0.0362,-0.095,0.006,-0.002,0.0
4.0,0.80979997,-0.57769996,0.0361,-0.0951,0.005,-0.002,-0.001
4.0,0.80979997,-0.57769996,0.0361,-0.09519999,0.005,-0.001,0.0
4.0,0.80969995,-0.57769996,0.036,-0.0953,0.002,0.0,-0.001
4.0,0.80969995,-0.57769996,0.036,-0.0953,0.0,0.0,0.0
4.0,0.80979997,-0.57769996,0.036,-0.0953,-0.002,0.0,0.004
4.0,0.80979997,-0.57769996,0.0361,-0.09519999,-0.004,0.0,-0.002
4.0,0.80979997,-0.57769996,0.0361,-0.09519999,0.0,0.0,-0.008
4.0,0.80969995,-0.57779998,0.0362,-0.0951,0.005,0.0,-0.008
4.0,0.80969995,-0.57779998,0.0361,-0.0951,0.009,-0.002,-0.007
4.0,0.80969995,-0.57779998,0.036,-0.0951,0.013,-0.002,-0.007
4.0,0.80969995,-0.57779998,0.0359,-0.0953,0.013,-0.001,-0.004
4.0,0.80969995,-0.57779998,0.0357,-0.0953,0.005,0.0,0.001
4.0,0.80979997,-0.57769996,0.0356,-0.0954,-0.004,0.002,0.002
4.0,0.80979997,-0.57769996,0.0354,-0.0954,-0.007,0.0,0.0
4.0,0.80979997,-0.57769996,0.0353,-0.0955,-0.002,-0.001,-0.001
4.0,0.80979997,-0.5776,0.0351,-0.0955,0.0,0.0,0.001
4.0,0.80989999,-0.5776,0.035,-0.0955,-0.002,-0.001,0.0
4.0,0.80989999,-0.5776,0.0349,-0.09559999,0.0,-0.001,-0.003
4.0,0.80979997,-0.5776,0.0347,-0.09559999,0.002,0.0,-0.002
4.0,0.80979997,-0.5776,0.0347,-0.0957,0.003,0.0,0.0
4.0,0.80989999,-0.5776,0.0347,-0.0957,0.001,0.001,0.0
4.0,0.80989999,-0.5776,0.0347,-0.09559999,-0.001,0.0,-0.004
4.0,0.80989999,-0.5776,0.0347,-0.09559999,0.001,0.0,-0.005
4.0,0.80989999,-0.5776,0.0347,-0.0955,-0.002,0.001,-0.003
4.0,0.80989999,-0.5776,0.0346,-0.0955,0.0,0.0,-0.004
4.0,0.80989999,-0.5776,0.0344,-0.0955,0.003,-0.002,-0.002
4.0,0.80989999,-0.5776,0.0342,-0.09559999,0.004,-0.001,-0.002
4.0,0.80989999,-0.5776,0.034,-0.0957,0.006,0.0,0.0
4.0,0.80989999,-0.5776,0.034,-0.0957,0.0,-0.001,0.0
4.0,0.80989999,-0.5776,0.034,-0.0957,0.0,-0.001,-0.005
4.0,0.80989999,-0.5776,0.034,-0.0958,0.005,-0.001,-0.001
4.0,0.80989999,-0.5776,0.0341,-0.0958,0.001,0.0,0.0
4.0,0.80989999,-0.57749999,0.0342,-0.0957,-0.002,0.001,0.003
4.0,0.80989999,-0.57749999,0.0342,-0.0957,-0.004,0.003,0.002
4.0,0.81,-0.57749999,0.0342,-0.09559999,-0.004,0.003,0.001
4.0,0.81,-0.57749999,0.0341,-0.0955,-0.004,0.0,-0.001
4.0,0.81,-0.57749999,0.0341,-0.0955,0.0,-0.001,-0.007
4.0,0.81,-0.57749999,0.034,-0.09559999,0.002,-0.002,-0.008
4.0,0.81,-0.57749999,0.0338,-0.09559999,0.004,-0.001,-0.006
4.0,0.81,-0.57749999,0.0338,-0.0957,0.003,0.0,-0.001
4.0,0.81,-0.57739997,0.0337,-0.0957,0.0,0.0,0.0
4.0,0.81,-0.57739997,0.0338,-0.09559999,-0.001,0.001,-0.001
4.0,0.81,-0.57739997,0.0338,-0.09559999,0.0,0.0,-0.002
4.0,0.81,-0.57739997,0.0338,-0.09559999,0.004,0.0,0.001
4.0,0.81,-0.57739997,0.0339,-0.09559999,0.002,0.001,0.0
4.0,0.81009996,-0.57739997,0.0339,-0.09559999,0.0,-0.001,-0.006
4.0,0.81,-0.57739997,0.0338,-0.0957,0.001,0.0,-0.002
4.0,0.81009996,-0.57739997,0.0338,-0.0957,-0.003,0.001,0.0
4.0,0.81009996,-0.57739997,0.0337,-0.09559999,-0.002,0.0,0.0
4.0,0.81009996,-0.57730001,0.0336,-0.09559999,0.0,0.0,0.0
4.0,0.81009996,-0.57730001,0.0336,-0.09559999,0.0,0.0,-0.003
4.0,0.81009996,-0.57730001,0.0336,-0.09559999,0.006,-0.001,-0.003
4.0,0.81009996,-0.57730001,0.0337,-0.0957,0.008,0.0,0.0
4.0,0.81009996,-0.57730001,0.0337,-0.0957,0.004,0.0,0.0
4.0,0.81009996,-0.57730001,0.0338,-0.0957,0.0,0.0,-0.003
4.0,0.81009996,-0.57730001,0.0338,-0.0957,0.0,0.0,-0.002
4.0,0.81009996,-0.57730001,0.0338,-0.0957,-0.002,0.0,-0.001
4.0,0.81009996,-0.57730001,0.0338,-0.0957,-0.003,0.0,0.002
4.0,0.81019998,-0.57730001,0.0338,-0.09559999,-0.004,0.0,-0.003
4.0,0.81009996,-0.57730001,0.0338,-0.09559999,0.002,-0.001,-0.004
4.0,0.81019998,-0.5772,0.0337,-0.0957,0.004,0.0,-0.002
4.0,0.81019998,-0.5772,0.0336,-0.0957,0.004,-0.001,0.0
4.0,0.81019998,-0.5772,0.0336,-0.0958,0.005,-0.001,0.0
4.0,0.81009996,-0.5772,0.0336,-0.0959,0.005,-0.001,-0.001
4.0,0.81009996,-0.5772,0.0336,-0.0959,0.001,0.0,0.001
4.0,0.81009996,-0.5772,0.0337,-0.0959,-0.003,0.001,0.001
4.0,0.81019998,-0.5772,0.0339,-0.0958,-0.004,0.0,-0.003
4.0,0.81009996,-0.5772,0.0339,-0.0958,-0.002,0.001,-0.004
4.0,0.81009996,-0.57730001,0.034,-0.0957,0.001,0.001,-0.003
4.0,0.81009996,-0.57730001,0.0339,-0.0958,0.003,0.0,-0.005
4.0,0.81009996,-0.57730001,0.0338,-0.0958,0.004,-0.001,-0.004
4.0,0.81009996,-0.57730001,0.0337,-0.0959,0.005,-0.001,0.0
4.0,0.81009996,-0.57730001,0.0336,-0.0959,0.001,0.0,0.001
4.0,0.81009996,-0.5772,0.0336,-0.096,0.002,0.0,-0.001
4.0,0.81009996,-0.5772,0.0336,-0.096,0.003,-0.001,-0.002
4.0,0.81009996,-0.5772,0.0336,-0.096,0.002,-0.002,-0.001
4.0,0.81009996,-0.5772,0.0336,-0.0961,0.003,0.0,-0.003
4.0,0.81009996,-0.5772,0.0337,-0.0961,0.005,-0.001,-0.004
4.0,0.81009996,-0.5772,0.0336,-0.0962,0.001,0.002,0.0
4.0,0.81009996,-0.5772,0.0336,-0.0961,-0.005,0.0,0.0
4.0,0.81019998,-0.5772,0.0335,-0.0961,-0.004,0.0,-0.001
4.0,0.81009996,-0.5772,0.0335,-0.0961,0.0,0.0,-0.005
4.0,0.81009996,-0.5772,0.0334,-0.0961,0.001,0.0,-0.004
4.0,0.81009996,-0.5772,0.0334,-0.0962,0.004,-0.002,-0.003
4.0,0.81009996,-0.5772,0.0334,-0.0963,0.005,-0.003,-0.001
4.0,0.81009996,-0.5772,0.0334,-0.0963,0.004,0.0,0.0
4.0,0.81009996,-0.5772,0.0334,-0.0964,0.0,0.003,0.004
4.0,0.81009996,-0.5772,0.0335,-0.0963,-0.004,0.004,0.0
4.0,0.81009996,-0.5772,0.0335,-0.0963,-0.001,0.001,-0.004
4.0,0.81009996,-0.5772,0.0335,-0.0962,0.001,0.0,-0.009
4.0,0.81019998,-0.57709998,0.0334,-0.0963,0.005,-0.004,-0.008
4.0,0.81019998,-0.57709998,0.0333,-0.0964,0.007,-0.002,-0.004
4.0,0.81009996,-0.5772,0.0331,-0.09649999,0.003,-0.001,0.0
4.0,0.81009996,-0.5772,0.033,-0.0966,0.002,0.0,0.003
4.0,0.81009996,-0.5772,0.0329,-0.0966,0.0,0.0,0.005
4.0,0.81009996,-0.57709998,0.0329,-0.0967,0.0,0.0,0.005
4.0,0.81019998,-0.57709998,0.0329,-0.0967,0.001,0.0,0.002
4.0,0.81019998,-0.57709998,0.033,-0.0967,0.0,0.0,-0.002
4.0,0.81009996,-0.57709998,0.033,-0.0968,-0.001,0.0,-0.005
4.0,0.81009996,-0.57709998,0.033,-0.0968,-0.002,0.0,-0.002
4.0,0.81009996,-0.57709998,0.0329,-0.0967,-0.007,0.001,0.0
4.0,0.81009996,-0.5772,0.0328,-0.09649999,-0.007,0.001,-0.003
4.0,0.81009996,-0.5772,0.0328,-0.09649999,-0.002,0.0,-0.005
4.0,0.81009996,-0.5772,0.0327,-0.0966,0.004,-0.001,-0.003
4.0,0.81009996,-0.5772,0.0327,-0.0967,0.007,0.0,0.001
4.0,0.81009996,-0.5772,0.0326,-0.0968,0.006,0.001,0.0
4.0,0.81009996,-0.5772,0.0326,-0.0968,0.002,0.0,-0.002
4.0,0.81009996,-0.5772,0.0326,-0.0969,-0.002,0.0,0.0
4.0,0.81009996,-0.5772,0.0326,-0.0969,-0.003,0.0,0.0
4.0,0.81009996,-0.5772,0.0327,-0.0969,0.001,0.0,0.0
4.0,0.81,-0.5772,0.0328,-0.0969,0.005,-0.002,0.0
4.0,0.81,-0.57730001,0.0328,-0.097,0.005,0.0,0.001
4.0,0.81,-0.57730001,0.0329,-0.097,0.005,0.001,-0.001
4.0,0.81,-0.57730001,0.033,-0.097,0.004,-0.002,-0.007
4.0,0.81,-0.57730001,0.033,-0.0971,0.006,-0.001,-0.007
4.0,0.81,-0.57730001,0.0331,-0.0971,0.003,-0.001,-0.002
4.0,0.81,-0.57730001,0.0331,-0.0971,0.0,-0.002,-0.003
4.0,0.80989999,-0.57730001,0.0332,-0.0972,0.003,0.0,-0.004
4.0,0.80989999,-0.57739997,0.0332,-0.0972,0.0,-0.001,-0.002
4.0,0.80989999,-0.57739997,0.0332,-0.0973,0.001,0.0,0.0
4.0,0.80989999,-0.57739997,0.0332,-0.0973,0.0,0.001,0.0
4.0,0.80979997,-0.57739997,0.0333,-0.09739999,0.004,-0.001,-0.004
4.0,0.80979997,-0.57739997,0.0334,-0.0975,0.005,-0.001,-0.002
4.0,0.80979997,-0.57739997,0.0334,-0.09739999,-0.002,0.0,0.0
4.0,0.80979997,-0.57739997,0.0334,-0.09739999,-0.001,0.0,-0.002
4.0,0.80979997,-0.57749999,0.0334,-0.0975,0.004,-0.001,-0.003
4.0,0.80979997,-0.57749999,0.0333,-0.0975,0.007,-0.001,-0.006
4.0,0.80979997,-0.57749999,0.0333,-0.0976,0.008,-0.001,-0.004
4.0,0.80969995,-0.57749999,0.0333,-0.0977,0.008,-0.002,-0.002
4.0,0.80969995,-0.57749999,0.0333,-0.09779999,0.006,0.0,0.0
4.0,0.80969995,-0.57749999,0.0333,-0.0979,0.0,0.002,0.001
4.0,0.80969995,-0.57749999,0.0333,-0.09779999,-0.005,0.001,0.0
4.0,0.80969995,-0.57749999,0.0333,-0.09779999,0.0,0.0,-0.003
4.0,0.80969995,-0.57749999,0.0333,-0.09779999,0.007,-0.002,-0.008
4.0,0.80969995,-0.5776,0.0334,-0.0979,0.01,-0.001,-0.008
4.0,0.8096,-0.5776,0.0334,-0.098,0.011,-0.001,-0.005
4.0,0.8096,-0.5776,0.0333,-0.0981,0.008,0.0,-0.003
4.0,0.8096,-0.5776,0.0332,-0.0982,0.006,-0.002,-0.002
4.0,0.8096,-0.5776,0.0332,-0.0982,0.003,0.0,0.0
4.0,0.8096,-0.5776,0.0331,-0.0983,0.002,0.001,0.0
4.0,0.8096,-0.5776,0.0331,-0.0983,0.006,-0.003,-0.004
4.0,0.8096,-0.5776,0.0329,-0.0984,0.008,-0.003,-0.004
4.0,0.8096,-0.5776,0.0328,-0.0985,0.009,0.002,-0.001
4.0,0.8096,-0.5776,0.0327,-0.0986,0.001,0.0,0.0
4.0,0.8096,-0.5776,0.0326,-0.0986,-0.001,-0.004,-0.002
4.0,0.8096,-0.5776,0.0326,-0.09869999,0.003,-0.003,-0.002
4.0,0.8096,-0.5776,0.0326,-0.09869999,0.002,0.002,0.002
4.0,0.8096,-0.5776,0.0326,-0.0986,0.002,0.0,0.006
4.0,0.8096,-0.5776,0.0326,-0.0986,0.003,0.001,0.003
4.0,0.8096,-0.5776,0.0326,-0.0986,-0.001,0.0,-0.004
4.0,0.8096,-0.5776,0.0325,-0.09869999,-0.003,0.0,-0.003
4.0,0.8096,-0.5776,0.0323,-0.09869999,-0.007,0.001,0.0
4.0,0.8096,-0.5776,0.0322,-0.09869999,-0.014,0.002,0.004
4.0,0.8096,-0.5776,0.0322,-0.0986,-0.017,0.003,0.002
4.0,0.8096,-0.5776,0.0322,-0.0984,-0.017,0.002,0.001
4.0,0.8096,-0.5776,0.0323,-0.0983,-0.011,0.001,0.0
4.0,0.8096,-0.57769996,0.0323,-0.0982,0.0,0.0,-0.004
4.0,0.8096,-0.57769996,0.0324,-0.0981,0.011,-0.003,-0.007
4.0,0.8096,-0.57769996,0.0324,-0.0982,0.018,-0.003,-0.011
4.0,0.8096,-0.57769996,0.0324,-0.0982,0.022,-0.004,-0.01
4.0,0.80949998,-0.57779998,0.0324,-0.0984,0.015,0.0,-0.002
4.0,0.80949998,-0.57779998,0.0324,-0.0984,0.003,0.0,-0.001
4.0,0.80949998,-0.57779998,0.0324,-0.0985,-0.002,0.0,-0.002
4.0,0.80949998,-0.57769996,0.0324,-0.0985,-0.01,0.003,0.0
4.0,0.80949998,-0.57769996,0.0323,-0.0984,-0.015,0.002,0.0
4.0,0.8096,-0.57769996,0.0322,-0.0984,-0.01,0.0,0.0
4.0,0.8096,-0.57769996,0.0322,-0.0984,-0.006,-0.002,0.0
4.0,0.8096,-0.57769996,0.0321,-0.0984,-0.001,0.0,0.003
4.0,0.80949998,-0.57769996,0.0323,-0.0983,0.004,0.0,0.003
4.0,0.80949998,-0.57779998,0.0324,-0.0983,0.01,0.0,0.0
4.0,0.80949998,-0.57779998,0.0326,-0.0983,0.014,-0.002,-0.003
4.0,0.80949998,-0.57779998,0.0328,-0.0983,0.019,-0.002,-0.005
4.0,0.80949998,-0.57779998,0.0329,-0.0984,0.013,0.001,-0.002
4.0,0.80949998,-0.57779998,0.0329,-0.0984,0.0,0.002,-0.004
4.0,0.80949998,-0.57779998,0.0328,-0.0984,-0.006,0.001,-0.008
4.0,0.80949998,-0.57779998,0.0328,-0.0985,-0.009,-0.001,-0.007
4.0,0.80949998,-0.57779998,0.0327,-0.0985,-0.006,-0.001,-0.004
4.0,0.80949998,-0.57779998,0.0327,-0.0985,-0.001,0.0,-0.002
4.0,0.80939996,-0.57779998,0.0326,-0.0985,0.005,-0.001,-0.003
4.0,0.80939996,-0.57789999,0.0327,-0.09869999,0.008,0.0,0.0
4.0,0.80939996,-0.57779998,0.0327,-0.09869999,0.006,0.0,0.005
4.0,0.80939996,-0.57779998,0.0328,-0.09869999,0.004,0.0,0.006
4.0,0.80939996,-0.57779998,0.0328,-0.09869999,0.003,0.0,-0.002
4.0,0.80939996,-0.57779998,0.0329,-0.09869999,0.003,0.0,-0.007
4.0,0.80939996,-0.57779998,0.0328,-0.0988,0.001,0.0,-0.008
4.0,0.80939996,-0.57779998,0.0327,-0.0989,-0.001,0.0,-0.006
4.0,0.80939996,-0.57779998,0.0325,-0.0989,0.0,-0.002,-0.005
4.0,0.80939996,-0.57779998,0.0325,-0.0989,-0.003,0.0,-0.001
4.0,0.80939996,-0.57779998,0.0325,-0.0989,0.002,0.001,-0.001
4.0,0.80939996,-0.57779998,0.0325,-0.0989,0.003,0.0,0.0
4.0,0.80939996,-0.57779998,0.0326,-0.099,0.007,-0.001,-0.001
4.0,0.80939996,-0.57779998,0.0327,-0.0991,0.007,-0.002,-0.002
4.0,0.80939996,-0.57769996,0.0327,-0.0992,0.007,-0.001,-0.002
4.0,0.80939996,-0.57769996,0.0326,-0.0993,0.001,0.0,0.0
4.0,0.80939996,-0.57769996,0.0326,-0.0992,-0.005,0.0,0.0
4.0,0.80939996,-0.57769996,0.0325,-0.0992,-0.004,0.001,0.001
4.0,0.80949998,-0.57769996,0.0326,-0.0992,0.001,0.0,0.001
4.0,0.80939996,-0.57769996,0.0327,-0.0992,0.005,0.0,-0.003
4.0,0.80939996,-0.57779998,0.0327,-0.0992,0.009,-0.002,-0.008
4.0,0.80939996,-0.57779998,0.0326,-0.0994,0.012,-0.002,-0.007
4.0,0.80939996,-0.57779998,0.0325,-0.0995,0.009,0.0,-0.005
4.0,0.80939996,-0.57769996,0.0325,-0.09959999,0.001,0.0,0.0
4.0,0.80939996,-0.57769996,0.0324,-0.09959999,-0.006,0.001,0.0
4.0,0.80939996,-0.57769996,0.0324,-0.0995,-0.006,0.0,0.0
4.0,0.80939996,-0.57769996,0.0324,-0.0995,-0.001,0.0,-0.001
4.0,0.80939996,-0.57769996,0.0323,-0.0995,0.007,-0.002,-0.001
4.0,0.80939996,-0.57769996,0.0323,-0.09959999,0.01,-0.003,-0.002
4.0,0.80939996,-0.57769996,0.0322,-0.0997,0.011,-0.002,-0.002
4.0,0.80939996,-0.57769996,0.0322,-0.0998,0.007,0.0,0.0
4.0,0.80939996,-0.57769996,0.0322,-0.0999,0.002,0.001,0.0
4.0,0.80939996,-0.57769996,0.0322,-0.0998,-0.003,0.001,0.0
4.0,0.80939996,-0.57769996,0.0323,-0.0998,-0.004,0.0,-0.003
4.0,0.80939996,-0.57769996,0.0324,-0.0997,0.003,-0.001,-0.005
4.0,0.80939996,-0.57769996,0.0324,-0.0998,0.005,-0.002,-0.006
4.0,0.80930001,-0.57779998,0.0323,-0.0998,0.007,-0.002,-0.005
4.0,0.80930001,-0.57779998,0.0322,-0.0999,0.006,-0.001,-0.004
4.0,0.80930001,-0.57779998,0.032,-0.09999999,0.005,0.0,-0.003
4.0,0.80930001,-0.57779998,0.0319,-0.1002,0.003,0.0,0.0
4.0,0.80930001,-0.57779998,0.0319,-0.1002,0.003,0.0,0.0
4.0,0.80930001,-0.57779998,0.0319,-0.1003,0.003,0.0,0.0
4.0,0.80930001,-0.57779998,0.032,-0.1003,0.0,0.0,-0.002
4.0,0.80919999,-0.57789999,0.032,-0.1002,-0.001,0.0,-0.004
4.0,0.80919999,-0.57789999,0.032,-0.1002,0.0,0.0,-0.004
4.0,0.80909997,-0.57800001,0.032,-0.1003,0.0,0.0,-0.002
4.0,0.80909997,-0.57800001,0.032,-0.1003,0.003,0.0,0.0
4.0,0.80909997,-0.57800001,0.032,-0.1004,0.004,0.0,0.002
4.0,0.80909997,-0.57800001,0.032,-0.1004,0.002,0.003,0.003
4.0,0.80909997,-0.57800001,0.032,-0.1003,-0.004,0.002,-0.001
4.0,0.80919999,-0.57800001,0.0321,-0.1003,-0.003,0.0,-0.008
4.0,0.80919999,-0.57800001,0.0321,-0.1003,0.003,-0.002,-0.009
4.0,0.80909997,-0.57800001,0.0321,-0.1003,0.006,-0.003,-0.005
4.0,0.80909997,-0.57800001,0.0322,-0.1003,0.005,0.0,-0.005
4.0,0.80909997,-0.57809997,0.0322,-0.1004,0.002,0.0,-0.004
4.0,0.80899996,-0.57809997,0.0322,-0.1004,0.001,0.001,0.0
4.0,0.80909997,-0.57800001,0.0322,-0.1004,-0.003,0.003,0.001
4.0,0.80909997,-0.57800001,0.0322,-0.1004,-0.005,0.001,0.0
4.0,0.80909997,-0.57800001,0.0322,-0.1004,-0.003,-0.002,-0.007
4.0,0.80909997,-0.57800001,0.0321,-0.1004,0.002,-0.004,-0.011
4.0,0.80909997,-0.57800001,0.032,-0.1004,0.008,-0.002,-0.007
4.0,0.80909997,-0.57800001,0.032,-0.1005,0.009,0.0,-0.004
4.0,0.80909997,-0.57800001,0.0319,-0.1006,0.008,-0.001,-0.004
4.0,0.80909997,-0.57800001,0.0319,-0.1007,0.006,0.0,0.0
4.0,0.80909997,-0.57789999,0.0319,-0.1008,0.001,0.002,0.008
4.0,0.80919999,-0.57789999,0.032,-0.1007,-0.006,0.002,0.006
4.0,0.80919999,-0.57779998,0.032,-0.1006,-0.01,0.0,-0.006
4.0,0.80919999,-0.57779998,0.0321,-0.1005,-0.001,-0.001,-0.009
4.0,0.80930001,-0.57779998,0.032,-0.1005,0.004,-0.004,-0.008
4.0,0.80919999,-0.57779998,0.0319,-0.1006,0.013,-0.003,-0.003
4.0,0.80919999,-0.57779998,0.0318,-0.1007,0.016,-0.001,-0.003
4.0,0.80919999,-0.57779998,0.0319,-0.1008,0.016,0.0,-0.002
4.0,0.80919999,-0.57779998,0.0319,-0.1008,0.009,0.002,0.002
4.0,0.80930001,-0.57769996,0.032,-0.1008,0.002,0.001,0.002
4.0,0.80930001,-0.5776,0.032,-0.1008,0.001,-0.001,-0.007
4.0,0.80939996,-0.5776,0.0319,-0.1008,0.006,-0.003,-0.012
4.0,0.80939996,-0.5776,0.0317,-0.1008,0.006,-0.002,-0.008
4.0,0.80939996,-0.5776,0.0315,-0.10089999,0.004,-0.001,-0.004
4.0,0.80939996,-0.5776,0.0312,-0.1011,0.003,-0.001,0.0
4.0,0.80939996,-0.5776,0.031,-0.1012,0.003,0.0,0.0
4.0,0.80939996,-0.57749999,0.031,-0.1012,0.001,0.001,0.008
4.0,0.80939996,-0.57749999,0.031,-0.1012,-0.004,0.002,0.009
4.0,0.80949998,-0.57739997,0.031,-0.1012,-0.007,0.003,0.005
4.0,0.80949998,-0.57739997,0.031,-0.1011,-0.006,0.0,0.001
4.0,0.80949998,-0.57730001,0.0309,-0.101,-0.005,0.0,-0.005
4.0,0.8096,-0.57730001,0.0307,-0.101,0.0,-0.001,-0.007
4.0,0.8096,-0.57730001,0.0306,-0.1011,0.003,-0.001,-0.004
4.0,0.80949998,-0.57730001,0.0303,-0.1012,0.005,-0.002,-0.001
4.0,0.80949998,-0.57730001,0.0302,-0.1013,0.003,0.0,0.004
4.0,0.8096,-0.57730001,0.0301,-0.1014,-0.001,0.002,0.005
4.0,0.8096,-0.57730001,0.0301,-0.1013,-0.002,0.0,0.001
4.0,0.8096,-0.5772,0.0301,-0.1013,0.0,0.001,0.0
4.0,0.8096,-0.5772,0.0301,-0.1012,0.0,0.0,-0.004
4.0,0.8096,-0.5772,0.0301,-0.1013,0.006,-0.003,-0.005
4.0,0.8096,-0.5772,0.0301,-0.1013,0.009,-0.002,-0.003
4.0,0.8096,-0.57730001,0.03,-0.1014,0.004,0.001,0.005
4.0,0.8096,-0.57730001,0.03,-0.1015,-0.005,0.002,0.006
4.0,0.80969995,-0.5772,0.0298,-0.1013,-0.009,0.0,0.005
4.0,0.80969995,-0.5772,0.0299,-0.1013,-0.004,0.0,0.0
4.0,0.8096,-0.5772,0.03,-0.1012,0.002,-0.001,-0.005
4.0,0.8096,-0.57730001,0.0301,-0.1012,0.009,-0.001,-0.009
4.0,0.8096,-0.57730001,0.0302,-0.1012,0.012,-0.002,-0.011
4.0,0.80949998,-0.57739997,0.0302,-0.1013,0.01,-0.001,-0.009
4.0,0.80949998,-0.57739997,0.0302,-0.1013,0.005,0.0,-0.005
4.0,0.80949998,-0.57739997,0.0302,-0.1014,0.005,-0.001,-0.001
4.0,0.80949998,-0.57739997,0.0302,-0.1014,0.0,0.0,0.002
4.0,0.80939996,-0.57739997,0.0302,-0.1014,0.0,0.0,0.0
4.0,0.80939996,-0.57749999,0.0303,-0.1015,0.001,0.001,-0.002
4.0,0.80939996,-0.57749999,0.0303,-0.1014,-0.001,0.001,-0.004
4.0,0.80939996,-0.5776,0.0304,-0.1014,0.0,0.0,-0.006
4.0,0.80930001,-0.5776,0.0304,-0.1015,0.001,-0.001,-0.005
4.0,0.80930001,-0.5776,0.0304,-0.1016,0.002,0.0,0.0
4.0,0.80930001,-0.5776,0.0304,-0.1016,-0.001,0.002,0.001
4.0,0.80930001,-0.5776,0.0304,-0.1015,-0.004,0.001,-0.002
4.0,0.80930001,-0.57769996,0.0303,-0.1014,-0.003,0.001,-0.004
4.0,0.80930001,-0.57769996,0.0303,-0.1014,0.001,0.0,-0.002
4.0,0.80919999,-0.57769996,0.0304,-0.1014,0.007,-0.002,-0.004
4.0,0.80919999,-0.57779998,0.0303,-0.1015,0.01,-0.003,-0.009
4.0,0.80919999,-0.57779998,0.0303,-0.1016,0.01,-0.001,-0.008
4.0,0.80919999,-0.57779998,0.0303,-0.1016,0.006,0.001,-0.001
4.0,0.80919999,-0.57779998,0.0303,-0.1016,-0.005,0.003,0.001
4.0,0.80919999,-0.57769996,0.0304,-0.1015,-0.009,0.0,-0.003
4.0,0.80919999,-0.57769996,0.0304,-0.1015,-0.004,0.0,-0.006
4.0,0.80930001,-0.57769996,0.0303,-0.1015,0.005,-0.001,-0.005
4.0,0.80919999,-0.57769996,0.0301,-0.1015,0.012,-0.001,-0.004
4.0,0.80919999,-0.57769996,0.03,-0.1016,0.015,-0.004,-0.008
4.0,0.80919999,-0.57769996,0.0299,-0.10179999,0.011,-0.002,-0.006
4.0,0.80919999,-0.57769996,0.0298,-0.1019,0.004,0.0,0.0
4.0,0.80919999,-0.57769996,0.0298,-0.1019,-0.005,0.002,0.002
4.0,0.80930001,-0.5776,0.0298,-0.10179999,-0.007,0.002,-0.001
4.0,0.80930001,-0.5776,0.0299,-0.1017,-0.002,0.001,-0.007
4.0,0.80930001,-0.5776,0.0299,-0.1017,0.003,-0.001,-0.007
4.0,0.80930001,-0.5776,0.0299,-0.1017,0.009,-0.002,-0.005
4.0,0.80930001,-0.5776,0.0298,-0.1017,0.006,0.0,-0.001
4.0,0.80930001,-0.5776,0.0296,-0.1019,0.006,-0.001,0.0
4.0,0.80930001,-0.57749999,0.0294,-0.102,0.005,-0.001,0.002
4.0,0.80930001,-0.57749999,0.0292,-0.1021,0.006,-0.001,0.001
4.0,0.80930001,-0.57749999,0.0291,-0.10219999,0.006,0.0,0.001
4.0,0.80930001,-0.57749999,0.0291,-0.1023,0.004,0.0,0.001
4.0,0.80930001,-0.57749999,0.0291,-0.1023,0.001,0.0,-0.004
4.0,0.80930001,-0.57749999,0.0292,-0.1023,0.001,0.0,-0.002
4.0,0.80939996,-0.57749999,0.0292,-0.10219999,-0.003,0.001,0.0
4.0,0.80939996,-0.57749999,0.0292,-0.1021,-0.003,0.0,-0.006
4.0,0.80939996,-0.57749999,0.0292,-0.1021,0.002,0.0,-0.006
4.0,0.80939996,-0.57749999,0.0292,-0.1021,0.005,0.0,-0.007
4.0,0.80939996,-0.57749999,0.0291,-0.10219999,0.009,-0.002,-0.005
4.0,0.80939996,-0.57749999,0.029,-0.10219999,0.01,-0.002,-0.001
4.0,0.80939996,-0.57739997,0.0289,-0.1023,0.01,-0.001,0.0
4.0,0.80939996,-0.57739997,0.0288,-0.1024,0.004,-0.001,0.0
4.0,0.80939996,-0.57739997,0.0288,-0.1025,0.002,0.0,0.001
4.0,0.80939996,-0.57739997,0.0287,-0.1025,-0.005,0.0,-0.002
4.0,0.80939996,-0.57730001,0.0286,-0.1025,0.0,-0.002,-0.001
4.0,0.80939996,-0.57739997,0.0287,-0.1025,0.006,-0.002,-0.001
4.0,0.80939996,-0.57739997,0.0287,-0.1025,0.009,-0.003,-0.004
4.0,0.80930001,-0.57749999,0.0289,-0.1026,0.012,-0.001,-0.005
4.0,0.80930001,-0.57749999,0.029,-0.1028,0.015,0.0,-0.005
4.0,0.80930001,-0.57749999,0.029,-0.1028,0.008,0.0,-0.004
4.0,0.80930001,-0.57749999,0.0289,-0.1028,0.003,0.0,-0.007
4.0,0.80930001,-0.57749999,0.0288,-0.1028,0.004,0.0,-0.012
4.0,0.80930001,-0.57739997,0.0285,-0.1028,0.003,-0.001,-0.012
4.0,0.80939996,-0.57739997,0.0281,-0.1029,0.005,-0.003,-0.01
4.0,0.80939996,-0.57739997,0.0277,-0.10309999,0.009,-0.002,-0.01
4.0,0.80939996,-0.57730001,0.0273,-0.1032,0.013,-0.001,-0.014
4.0,0.80939996,-0.57730001,0.0268,-0.1034,0.016,-0.001,-0.015
4.0,0.80949998,-0.5772,0.0264,-0.1036,0.018,-0.001,-0.013
4.0,0.80949998,-0.57709998,0.0259,-0.1038,0.016,0.0,-0.015
4.0,0.8096,-0.57709998,0.0254,-0.1041,0.013,0.0,-0.019
4.0,0.8096,-0.57699996,0.0249,-0.1045,0.008,0.003,-0.024
4.0,0.8096,-0.57679999,0.0243,-0.1049,-0.001,0.003,-0.03
4.0,0.80969995,-0.57669997,0.0236,-0.1054,-0.004,0.002,-0.031
4.0,0.80969995,-0.57660002,0.0229,-0.1061,-0.006,-0.001,-0.031
4.0,0.80969995,-0.5765,0.0223,-0.1067,-0.007,-0.005,-0.03
4.0,0.80969995,-0.57639998,0.0218,-0.1074,-0.003,-0.006,-0.031
4.0,0.80969995,-0.57620001,0.0215,-0.1081,0.007,-0.006,-0.039
4.0,0.80969995,-0.57609999,0.0214,-0.10879999,0.029,-0.008,-0.045
4.0,0.8096,-0.57609999,0.0213,-0.10969999,0.045,-0.016,-0.046
4.0,0.8096,-0.57599998,0.0215,-0.1107,0.061,-0.016,-0.019
4.0,0.80949998,-0.5758,0.0217,-0.1117,0.027,0.002,-0.003
4.0,0.8096,-0.57559997,0.0219,-0.1127,-0.017,0.021,-0.011
4.0,0.80969995,-0.57529998,0.0221,-0.1134,-0.036,0.03,-0.016
4.0,0.80979997,-0.57489997,0.0222,-0.11409999,-0.043,0.024,-0.017
4.0,0.81,-0.57459998,0.0221,-0.1148,-0.038,0.012,-0.014
4.0,0.81009996,-0.57419997,0.0215,-0.1156,-0.018,0.004,-0.011
4.0,0.81029999,-0.57379997,0.0206,-0.11669999,0.003,0.002,-0.017
4.0,0.81040001,-0.57339996,0.0193,-0.118,0.014,0.003,-0.023
4.0,0.81049997,-0.57300001,0.0175,-0.1195,0.014,0.002,-0.018
4.0,0.81059998,-0.57260001,0.0155,-0.1212,0.011,0.0,-0.006
4.0,0.81059998,-0.5722,0.0134,-0.123,0.009,-0.004,0.007
4.0,0.81059998,-0.57179999,0.0114,-0.1249,0.008,-0.006,0.014
4.0,0.81059998,-0.5715,0.0096,-0.1267,0.007,-0.002,0.015
4.0,0.81049997,-0.57129997,0.0081,-0.1285,0.009,0.0,0.017
4.0,0.81040001,-0.5711,0.007,-0.1301,0.011,-0.007,0.021
4.0,0.81019998,-0.57099998,0.0063,-0.13169999,0.011,-0.02,0.027
4.0,0.80989999,-0.57099998,0.006,-0.13329999,0.014,-0.032,0.028
4.0,0.8096,-0.57120001,0.0062,-0.1347,0.02,-0.034,0.034
4.0,0.80919999,-0.57139999,0.0067,-0.13599999,0.006,-0.022,0.041
4.0,0.80879998,-0.57169998,0.0079,-0.1371,-0.026,0.0,0.036
4.0,0.80839998,-0.57199997,0.0094,-0.13789999,-0.039,0.007,0.024
4.0,0.80799997,-0.57239997,0.011,-0.13859999,-0.03,0.001,0.015
4.0,0.8075,-0.5729,0.0128,-0.1392,-0.017,-0.016,0.007
4.0,0.8071,-0.5733,0.0145,-0.1399,-0.003,-0.033,0.0
4.0,0.80659997,-0.57379997,0.016,-0.1408,0.016,-0.035,-0.008
4.0,0.80609995,-0.57419997,0.0172,-0.14199999,0.032,-0.018,-0.02
4.0,0.80549997,-0.57449996,0.0181,-0.1435,0.044,0.0,-0.029
4.0,0.80500001,-0.57480001,0.0186,-0.1453,0.048,0.007,-0.034
4.0,0.80439997,-0.57499999,0.0186,-0.1476,0.052,0.0,-0.031
4.0,0.80379999,-0.5751,0.0182,-0.1504,0.053,-0.008,-0.019
4.0,0.80320001,-0.57519996,0.0175,-0.15349999,0.053,-0.018,-0.014
4.0,0.80249995,-0.57529998,0.0166,-0.1568,0.046,-0.011,-0.017
4.0,0.80179995,-0.57539999,0.0156,-0.1602,0.034,0.003,-0.016
4.0,0.80109996,-0.57539999,0.0146,-0.1637,0.023,0.006,-0.018
4.0,0.80049998,-0.57529998,0.0134,-0.1673,0.02,0.001,-0.018
4.0,0.79979998,-0.5751,0.0122,-0.17099999,0.027,-0.01,-0.021
4.0,0.7992,-0.57480001,0.0109,-0.175,0.046,-0.028,-0.03
4.0,0.79839998,-0.57459998,0.0094,-0.17919999,0.062,-0.028,-0.038
4.0,0.79749995,-0.57449996,0.0078,-0.1837,0.071,-0.013,-0.051
4.0,0.79649997,-0.57440001,0.0059,-0.1883,0.059,0.003,-0.061
4.0,0.79539996,-0.57429999,0.0038,-0.19299999,0.034,0.011,-0.06500001
4.0,0.7942,-0.57440001,0.0014,-0.1978,0.007,0.011,-0.056
4.0,0.79289997,-0.57459998,-0.001,-0.2026,-0.009,0.014,-0.042
4.0,0.79149997,-0.57480001,-0.0035,-0.20729999,-0.02,0.017,-0.037
4.0,0.79009998,-0.5751,-0.0058,-0.2119,-0.013,0.017,-0.033
4.0,0.78849995,-0.57539999,-0.0078,-0.2165,0.011,0.025,-0.03
4.0,0.787,-0.57589996,-0.0096,-0.2209,0.037,0.047,-0.031
4.0,0.78529996,-0.57629997,-0.0111,-0.2253,0.063,0.07,-0.024
4.0,0.78369999,-0.57669997,-0.0127,-0.22999999,0.074,0.07300001,-0.015
4.0,0.78200001,-0.57709998,-0.0144,-0.23469999,0.072,0.06500001,-0.002
4.0,0.78029996,-0.57730001,-0.0163,-0.23959999,0.06900001,0.05,0.001
4.0,0.77849996,-0.5776,-0.0185,-0.2446,0.07,0.031,-0.004
4.0,0.7766,-0.57789999,-0.0207,-0.24969999,0.068,0.018,-0.009
4.0,0.77469999,-0.57809997,-0.0229,-0.25479999,0.054,0.021,-0.009
4.0,0.77269995,-0.57839996,-0.0248,-0.25979999,0.031,0.04,0.002
4.0,0.77079999,-0.57879996,-0.0264,-0.26459998,0.001,0.051,0.0
4.0,0.76879996,-0.57929999,-0.0275,-0.26909998,-0.025,0.054,-0.009
4.0,0.76669997,-0.5801,-0.0282,-0.27329999,-0.048,0.049,-0.027
4.0,0.76459998,-0.58099997,-0.0284,-0.27699998,-0.062,0.029,-0.043
4.0,0.76239997,-0.58230001,-0.0282,-0.28039998,-0.059,0.003,-0.057
4.0,0.76010001,-0.58389997,-0.0278,-0.2836,-0.042,-0.011,-0.061
4.0,0.75760001,-0.5855,-0.0274,-0.28669998,0.009,-0.01,-0.061
4.0,0.75519997,-0.58700001,-0.0269,-0.29009998,0.052,-0.004,-0.058
4.0,0.75259995,-0.58859998,-0.0264,-0.29359999,0.08400001,-0.001,-0.05
4.0,0.75,-0.59009999,-0.026,-0.2974,0.09,-0.009,-0.055
4.0,0.74719995,-0.5916,-0.026,-0.30140001,0.075,-0.008,-0.046
4.0,0.74449998,-0.59289998,-0.0262,-0.3055,0.043,0.0,-0.038
4.0,0.74189997,-0.59399998,-0.0269,-0.3096,0.007,0.01,-0.032
4.0,0.7392,-0.59509999,-0.0278,-0.31379998,-0.009,0.02,-0.016
4.0,0.73649997,-0.59619999,-0.0289,-0.31799999,-0.022,0.026,-0.021
4.0,0.73379999,-0.59719998,-0.0302,-0.3222,-0.037,0.022,-0.02
4.0,0.73100001,-0.59829998,-0.0316,-0.3263,-0.043,0.013,-0.016
4.0,0.7281,-0.5995,-0.033,-0.33049998,-0.047,0.015,-0.007
4.0,0.7252,-0.60069996,-0.0342,-0.33449998,-0.051,0.018,0.001
4.0,0.72240001,-0.60179996,-0.0351,-0.33840001,-0.053,0.021,0.001
4.0,0.71969998,-0.6031,-0.0356,-0.3418,-0.062,0.032,0.011
4.0,0.71709996,-0.6045,-0.0359,-0.34489998,-0.083,0.038,0.024
4.0,0.71469998,-0.6056,-0.0363,-0.3479,-0.08000001,0.049,0.012
4.0,0.7123,-0.6067,-0.0366,-0.35069999,-0.046,0.033,0.045
4.0,0.71020001,-0.60780001,-0.0367,-0.3531,-0.027,0.036,0.042
4.0,0.70819998,-0.60869998,-0.0369,-0.3556,-0.02,0.048,0.062
4.0,0.70639998,-0.60929996,-0.0373,-0.35799998,-0.021,0.052,0.066
4.0,0.70469999,-0.60969996,-0.0381,-0.36059999,-0.007,0.05,0.057
4.0,0.70300001,-0.61009997,-0.0387,-0.36300001,-0.006,0.049,0.056
4.0,0.70139998,-0.61049998,-0.0394,-0.36559999,-0.005,0.052,0.068
4.0,0.69989997,-0.61079997,-0.0395,-0.36789998,-0.014,0.054,0.081
4.0,0.69849998,-0.61109996,-0.0392,-0.37019998,-0.041,0.06500001,0.082
4.0,0.69709998,-0.61119998,-0.0389,-0.3725,-0.074,0.046,0.08000001
4.0,0.69589996,-0.61109996,-0.0386,-0.37489998,-0.078,0.028,0.09500001
4.0,0.69479996,-0.611,-0.038,-0.37719998,-0.08000001,0.004,0.11000001
4.0,0.69409996,-0.61079997,-0.0374,-0.37899998,-0.085,0.012,0.062
4.0,0.6936,-0.61039996,-0.0368,-0.38059998,-0.063,0.0,0.08800001
4.0,0.69319999,-0.61009997,-0.0356,-0.38189998,-0.037,-0.004,0.075
4.0,0.6929,-0.60979998,-0.0339,-0.38299999,-0.032,0.007,0.057
4.0,0.6929,-0.60939997,-0.0318,-0.38389999,-0.035,0.022,0.058
4.0,0.69299996,-0.6085,-0.0302,-0.38509998,-0.053,0.038,0.054
4.0,0.69330001,-0.6074,-0.029,-0.38639998,-0.052,0.03,0.058
4.0,0.69379997,-0.6063,-0.0276,-0.3874,-0.048,0.01,0.049
4.0,0.69439995,-0.60519999,-0.0264,-0.38799998,-0.054,0.005,0.034
4.0,0.69519997,-0.60409999,-0.0256,-0.38850001,-0.051,0.003,0.036
4.0,0.69599998,-0.60289997,-0.0249,-0.38889998,-0.044,-0.006,0.014
4.0,0.69690001,-0.60179996,-0.0241,-0.38909999,-0.04,-0.014,0.002
4.0,0.69779998,-0.60079998,-0.0231,-0.3892,-0.04,-0.013,-0.009
4.0,0.69870001,-0.59990001,-0.0218,-0.38909999,-0.037,-0.017,-0.016
4.0,0.69949996,-0.59909999,-0.0201,-0.3888,-0.036,-0.021,-0.021
4.0,0.70039999,-0.59850001,-0.0181,-0.38839999,-0.03,-0.022,-0.017
4.0,0.70109999,-0.59789997,-0.0158,-0.38789999,-0.021,-0.025,-0.001
4.0,0.70190001,-0.59729999,-0.0134,-0.38749999,-0.02,-0.027,0.012
4.0,0.70269996,-0.5966,-0.0112,-0.3872,-0.017,-0.022,0.022
4.0,0.70359999,-0.59569997,-0.0093,-0.38699999,-0.005,-0.024,0.021
4.0,0.70449996,-0.5948,-0.0075,-0.38679999,0.004,-0.032,0.013
4.0,0.70539999,-0.59389997,-0.0057,-0.38659999,0.011,-0.027,0.011
4.0,0.70609999,-0.59319997,-0.0036,-0.38639998,0.013,-0.01,0.023
4.0,0.70679998,-0.59249997,-0.0013,-0.38609999,0.01,0.012,0.048
4.0,0.7076,-0.59169996,0.0012,-0.38599998,0.007,0.043,0.087
4.0,0.70840001,-0.59060001,0.0043,-0.38609999,0.01,0.054,0.133
4.0,0.7094,-0.5891,0.008,-0.3865,0.021,0.043,0.16100001
4.0,0.7105,-0.58749998,0.0125,-0.38689998,0.04,0.021,0.17500001
4.0,0.71169996,-0.58590001,0.0177,-0.38699999,0.046,0.017,0.18800001
4.0,0.71289998,-0.58419997,0.0235,-0.38699999,0.04,0.031,0.19600001
4.0,0.71439999,-0.58230001,0.0301,-0.3865,0.042,0.054,0.22600001
4.0,0.71630001,-0.58029997,0.0374,-0.38549998,0.038,0.067,0.25300002
4.0,0.71869999,-0.57769996,0.0453,-0.38409999,0.027,0.07,0.27100003
4.0,0.72139996,-0.57459998,0.0538,-0.38239998,-0.001,0.072,0.27500001
4.0,0.72459996,-0.57099998,0.0633,-0.38029999,-0.051,0.071,0.24200001
4.0,0.72799999,-0.56720001,0.0737,-0.37779999,-0.09900001,0.071,0.20300001
4.0,0.73149997,-0.56330001,0.085,-0.37439999,-0.133,0.086,0.164
4.0,0.73499995,-0.55949998,0.0967,-0.37029999,-0.13800001,0.11400001,0.13900001
4.0,0.73839998,-0.55579996,0.109,-0.36589998,-0.12200001,0.13600001,0.12400001
4.0,0.74159998,-0.55180001,0.12199999,-0.3612,-0.096,0.148,0.11400001
4.0,0.74469995,-0.54750001,0.1356,-0.3565,-0.066,0.13700001,0.115
4.0,0.74779999,-0.54269999,0.1496,-0.35169998,-0.037,0.10600001,0.11400001
4.0,0.7507,-0.53759998,0.1639,-0.34689999,-0.027,0.082,0.1
4.0,0.7536,-0.53209996,0.17809999,-0.34209999,-0.042,0.09200001,0.083
4.0,0.75659996,-0.52630001,0.192,-0.3371,-0.08000001,0.12100001,0.061
4.0,0.75959998,-0.52020001,0.2057,-0.33159998,-0.13100001,0.14300001,0.036
4.0,0.76249999,-0.51419997,0.2192,-0.32549998,-0.177,0.16000001,0.018
4.0,0.76529998,-0.50830001,0.233,-0.31869999,-0.21800001,0.162,0.0
4.0,0.76779997,-0.50239998,0.2471,-0.31110001,-0.24000001,0.15900001,-0.017
4.0,0.7701,-0.49649999,0.26179999,-0.3028,-0.24800001,0.15000001,-0.026
4.0,0.77199996,-0.49069998,0.27699998,-0.29389998,-0.24000001,0.12800001,-0.043
4.0,0.77340001,-0.4849,0.29249999,-0.28459999,-0.23500001,0.116,-0.06500001
4.0,0.7744,-0.47909999,0.3082,-0.27500001,-0.22900002,0.105,-0.093
4.0,0.77499998,-0.47349998,0.32359999,-0.2651,-0.21800001,0.093,-0.134
4.0,0.77520001,-0.46809998,0.3387,-0.25509998,-0.20700002,0.087,-0.16900001
4.0,0.77520001,-0.46269998,0.35319999,-0.24499999,-0.19100001,0.07600001,-0.20200001
4.0,0.77499998,-0.45749998,0.3669,-0.2351,-0.16700001,0.057,-0.22600001
4.0,0.77459997,-0.45229998,0.37989998,-0.22559999,-0.142,0.038,-0.23700002
4.0,0.77410001,-0.44739997,0.3919,-0.2165,-0.115,0.013,-0.25100002
4.0,0.77349997,-0.4427,0.40279999,-0.20799999,-0.08800001,-0.009,-0.26900002
4.0,0.77289999,-0.43829998,0.4127,-0.20009999,-0.062,-0.032,-0.28400001
4.0,0.7723,-0.43449998,0.42109999,-0.19309999,-0.028,-0.059,-0.31300002
4.0,0.7719,-0.43109998,0.42809999,-0.18679999,-0.001,-0.074,-0.33100003
4.0,0.77160001,-0.42829999,0.4337,-0.1813,0.014,-0.08800001,-0.33800003
4.0,0.77139997,-0.42639998,0.43789998,-0.1767,0.027,-0.086,-0.34300002
4.0,0.7712,-0.4251,0.44099998,-0.17299999,0.029,-0.071,-0.34900001
4.0,0.77099997,-0.4244,0.44309998,-0.17,0.028,-0.058,-0.354
4.0,0.77069998,-0.42429999,0.44459999,-0.16769999,0.028,-0.052,-0.34800002
4.0,0.77039999,-0.42459998,0.4454,-0.1661,0.033,-0.05,-0.32900003
4.0,0.7701,-0.4253,0.44569999,-0.16509999,0.036,-0.052,-0.29700002
4.0,0.76980001,-0.42629999,0.4454,-0.1646,0.039,-0.047,-0.26100001
4.0,0.76959997,-0.4276,0.4447,-0.1645,0.037,-0.036,-0.23500001
4.0,0.7694,-0.42899999,0.4434,-0.1648,0.028,-0.019,-0.2
4.0,0.7694,-0.43059999,0.44169998,-0.1654,0.015,-0.007,-0.162
4.0,0.76929998,-0.43239999,0.43979999,-0.1662,0.005,0.0,-0.134
4.0,0.76919997,-0.43429998,0.4377,-0.1671,-0.002,-0.003,-0.09900001
4.0,0.76899999,-0.4364,0.43559998,-0.1681,-0.002,-0.005,-0.078
4.0,0.76859999,-0.43869999,0.43349999,-0.16929999,0.003,-0.007,-0.063
4.0,0.7683,-0.4411,0.4312,-0.1705,0.013,-0.004,-0.043
4.0,0.76800001,-0.44349998,0.4287,-0.17189999,0.018,0.0,-0.022
4.0,0.76769996,-0.44599998,0.426,-0.1733,0.019,0.001,-0.008
4.0,0.76749998,-0.44849998,0.42309999,-0.17479999,0.018,0.007,0.001
4.0,0.76739997,-0.45089999,0.41999999,-0.17629999,0.015,0.007,0.006
4.0,0.76739997,-0.4533,0.41689998,-0.1779,0.008,0.008,0.012
4.0,0.76739997,-0.45559999,0.41389999,-0.1794,-0.003,0.014,0.011
4.0,0.76730001,-0.45769998,0.41099998,-0.18079999,-0.004,0.019,0.014
4.0,0.76730001,-0.45969999,0.4082,-0.1821,-0.004,0.02,0.018
4.0,0.76730001,-0.46149999,0.4057,-0.18329999,-0.002,0.017,0.018
4.0,0.76730001,-0.4632,0.4032,-0.18439999,0.0,0.011,0.014
4.0,0.76739997,-0.4648,0.4007,-0.18539999,-0.004,0.012,0.0
4.0,0.76749998,-0.46649998,0.39809999,-0.1864,-0.01,0.011,-0.017
4.0,0.7676,-0.4682,0.39539999,-0.1875,-0.013,0.004,-0.039
4.0,0.7676,-0.4702,0.39249998,-0.18859999,-0.022,-0.009,-0.07300001
4.0,0.76739997,-0.4725,0.38939998,-0.18979999,-0.034,-0.021,-0.097
4.0,0.76699996,-0.47529998,0.38609999,-0.19119999,-0.057,-0.026,-0.126
4.0,0.76639998,-0.4786,0.38239998,-0.1926,-0.07600001,-0.021,-0.16000001
4.0,0.76569998,-0.48229998,0.37849998,-0.19409999,-0.083,-0.015,-0.19000001
4.0,0.76489997,-0.48619998,0.3743,-0.19559999,-0.079,-0.015,-0.21100001
4.0,0.76409996,-0.49039999,0.3696,-0.1973,-0.068,-0.029,-0.22100002
4.0,0.7633,-0.4948,0.36409998,-0.19939999,-0.059,-0.054,-0.22800002
4.0,0.76249999,-0.49969998,0.35789999,-0.20179999,-0.043,-0.07300001,-0.22700001
4.0,0.76159996,-0.50489998,0.35069999,-0.20459999,-0.031,-0.075,-0.22100002
4.0,0.76059997,-0.51059997,0.3427,-0.2078,-0.027,-0.067,-0.22000001
4.0,0.75959998,-0.5165,0.3337,-0.21139999,-0.027,-0.046,-0.22700001
4.0,0.7586,-0.52249998,0.32359999,-0.2156,-0.034,-0.022,-0.22600001
4.0,0.75769997,-0.52869999,0.3125,-0.22039999,-0.045,-0.014,-0.21300001
4.0,0.75669998,-0.53499997,0.3003,-0.22549999,-0.06900001,0.0,-0.2
4.0,0.75549996,-0.54159999,0.2872,-0.23089999,-0.094,0.019,-0.19600001
4.0,0.75400001,-0.54829997,0.27329999,-0.2366,-0.115,0.039,-0.2
4.0,0.75220001,-0.55540001,0.2586,-0.24229999,-0.14600001,0.066,-0.21000001
4.0,0.75,-0.56279999,0.243,-0.2481,-0.17,0.085,-0.21200001
4.0,0.74739999,-0.5704,0.22659999,-0.25389999,-0.18900001,0.09900001,-0.20400001
4.0,0.74449998,-0.57819998,0.2095,-0.25959998,-0.20700002,0.11300001,-0.17400001
4.0,0.74109995,-0.58609998,0.1918,-0.26499999,-0.21700001,0.132,-0.15900001
4.0,0.7374,-0.5941,0.17359999,-0.27019998,-0.223,0.16000001,-0.14
4.0,0.73329997,-0.60209996,0.1548,-0.27509999,-0.21600001,0.185,-0.105
4.0,0.72869998,-0.6099,0.13589999,-0.27989998,-0.21000001,0.19500001,-0.07600001
4.0,0.7238,-0.61750001,0.1168,-0.28459999,-0.192,0.19500001,-0.031
4.0,0.71849996,-0.62479997,0.09779999,-0.289,-0.16900001,0.19000001,0.024
4.0,0.71289998,-0.63190001,0.0791,-0.2933,-0.15000001,0.185,0.079
4.0,0.70709997,-0.63859999,0.0608,-0.29719999,-0.125,0.18300001,0.14600001
4.0,0.70120001,-0.64480001,0.0434,-0.30069998,-0.09,0.18800001,0.21400002
4.0,0.69529998,-0.65059996,0.0271,-0.3039,-0.059,0.18800001,0.27000001
4.0,0.68959999,-0.6559,0.0123,-0.30649999,-0.022,0.185,0.32100001
4.0,0.68409997,-0.66069996,-0.0009,-0.30859998,0.012,0.177,0.36000001
4.0,0.67879999,-0.66530001,-0.0127,-0.31029999,0.057,0.16100001,0.38700002
4.0,0.67399997,-0.66939998,-0.0225,-0.3114,0.10700001,0.13800001,0.40700001
4.0,0.66949999,-0.67320001,-0.0306,-0.31219998,0.15300001,0.11800001,0.41700003
4.0,0.66539997,-0.6767,-0.0371,-0.3127,0.186,0.109,0.42300001
4.0,0.662,-0.6796,-0.0417,-0.31299999,0.21400002,0.105,0.41500002
4.0,0.6591,-0.68199998,-0.0447,-0.31349999,0.23,0.086,0.37800002
4.0,0.6566,-0.6839,-0.0463,-0.3143,0.23800001,0.072,0.33700001
4.0,0.65459996,-0.68540001,-0.0461,-0.3154,0.23300001,0.068,0.30900002
4.0,0.65279996,-0.68649995,-0.0448,-0.31669998,0.23,0.059,0.28100002
4.0,0.65130001,-0.68720001,-0.0426,-0.3186,0.21200001,0.058,0.23800001
4.0,0.64999998,-0.6875,-0.0398,-0.3211,0.178,0.055,0.19700001
4.0,0.6487,-0.68739998,-0.0369,-0.3242,0.15400001,0.032,0.15200001
4.0,0.64739996,-0.68709999,-0.034,-0.32780001,0.15100001,0.0,0.093
4.0,0.64590001,-0.68669999,-0.0313,-0.3319,0.15700001,-0.014,0.051
4.0,0.64410001,-0.68629998,-0.0284,-0.33629999,0.15700001,-0.014,0.006
4.0,0.64209998,-0.68610001,-0.0252,-0.3409,0.134,-0.015,-0.054
4.0,0.63980001,-0.68610001,-0.0215,-0.34540001,0.093,0.0,-0.10700001
4.0,0.63729995,-0.68629998,-0.0177,-0.3497,0.044,0.011,-0.141
4.0,0.6347,-0.68689996,-0.0135,-0.3536,0.005,0.019,-0.15300001
4.0,0.63199997,-0.68759996,-0.0092,-0.35699999,-0.001,0.018,-0.155
4.0,0.62939996,-0.68849999,-0.0047,-0.35999998,0.012,0.012,-0.14500001
4.0,0.62669998,-0.68970001,0.0,-0.3624,0.026,0.008,-0.134
4.0,0.62409997,-0.69099998,0.005,-0.36449999,0.029,0.004,-0.115
4.0,0.6214,-0.69239998,0.0098,-0.3664,0.026,0.0,-0.09100001
4.0,0.61869997,-0.69369996,0.0145,-0.36809999,0.016,0.0,-0.072
4.0,0.61610001,-0.69510001,0.0189,-0.3698,0.005,0.008,-0.064
4.0,0.61339998,-0.69639999,0.0229,-0.37149999,-0.017,0.022,-0.071
4.0,0.61070001,-0.69769996,0.0264,-0.37329999,-0.043,0.028,-0.085
4.0,0.60780001,-0.69919997,0.0293,-0.37509999,-0.063,0.023,-0.096
4.0,0.60469997,-0.7008,0.0318,-0.3768,-0.079,0.008,-0.10300001
4.0,0.60149997,-0.70269996,0.034,-0.37829998,-0.087,-0.002,-0.1
4.0,0.59829998,-0.70469999,0.036,-0.37939999,-0.09500001,-0.007,-0.093
4.0,0.59499997,-0.7069,0.0378,-0.38029999,-0.09500001,-0.012,-0.086
4.0,0.59169996,-0.70919997,0.0396,-0.38099998,-0.09100001,-0.012,-0.078
4.0,0.58840001,-0.71160001,0.0412,-0.38139999,-0.083,-0.011,-0.074
4.0,0.58520001,-0.71399999,0.0426,-0.38159999,-0.06900001,-0.01,-0.067
4.0,0.58209997,-0.71649998,0.0438,-0.38169998,-0.056,-0.011,-0.059
4.0,0.579,-0.71889997,0.0447,-0.38169998,-0.047,-0.009,-0.053
4.0,0.57599998,-0.72139996,0.0454,-0.38159999,-0.036,-0.005,-0.048
4.0,0.57309997,-0.7238,0.0458,-0.38139999,-0.032,0.003,-0.041
4.0,0.57019997,-0.72609997,0.046,-0.3813,-0.024,0.014,-0.034
4.0,0.56739998,-0.72839999,0.0459,-0.3811,-0.025,0.026,-0.028
4.0,0.56479996,-0.73049998,0.0455,-0.3809,-0.033,0.027,-0.026
4.0,0.56229997,-0.73259997,0.0447,-0.38079998,-0.03,0.019,-0.018
4.0,0.56,-0.73449999,0.0436,-0.38069999,-0.016,0.012,-0.003
4.0,0.55759996,-0.73629999,0.0424,-0.38079998,-0.005,0.009,0.008
4.0,0.5553,-0.73799998,0.0412,-0.38099998,0.018,0.011,0.026
4.0,0.55309999,-0.7396,0.04,-0.3811,0.038,0.015,0.035
4.0,0.551,-0.74119997,0.0389,-0.38119999,0.04,0.027,0.04
4.0,0.54909998,-0.74259996,0.0379,-0.38139999,0.034,0.039,0.048
4.0,0.5474,-0.74369997,0.037,-0.38159999,0.038,0.041,0.058
4.0,0.546,-0.74469995,0.0359,-0.38189998,0.057,0.033,0.063
4.0,0.54479998,-0.74549997,0.035,-0.3822,0.07,0.024,0.053
4.0,0.5438,-0.74619997,0.0344,-0.38229999,0.06900001,0.018,0.038
4.0,0.54289997,-0.74689996,0.034,-0.38229999,0.062,0.015,0.028
4.0,0.54219997,-0.7475,0.0339,-0.38209999,0.055,0.022,0.029
4.0,0.54159999,-0.74799997,0.034,-0.38189998,0.049,0.036,0.03
4.0,0.54119998,-0.74839997,0.0345,-0.38159999,0.044,0.052,0.027
4.0,0.54109997,-0.74860001,0.0351,-0.3813,0.033,0.063,0.022
4.0,0.54109997,-0.74869996,0.0357,-0.38099998,0.026,0.06900001,0.017
4.0,0.5413,-0.74869996,0.0364,-0.38069999,0.022,0.058,0.008
4.0,0.54159999,-0.74860001,0.0369,-0.3804,0.022,0.049,0.002
4.0,0.542,-0.74839997,0.0374,-0.3802,0.019,0.05,-0.001
4.0,0.54259998,-0.74809998,0.0377,-0.37989998,0.021,0.052,-0.006
4.0,0.54320002,-0.74779999,0.0381,-0.3795,0.019,0.053,-0.009
4.0,0.54390001,-0.7475,0.0384,-0.37909999,0.011,0.053,-0.009
4.0,0.54479998,-0.74719995,0.0386,-0.37849998,0.007,0.05,-0.008
4.0,0.54570001,-0.74680001,0.0388,-0.37799999,0.011,0.042,-0.006
4.0,0.54679996,-0.74619997,0.0388,-0.3775,0.022,0.03,-0.002
4.0,0.54799998,-0.74559999,0.0387,-0.377,0.018,0.027,0.0
4.0,0.54930001,-0.74489999,0.0385,-0.37649998,0.027,0.021,-0.003
4.0,0.55070001,-0.74409997,0.0382,-0.3761,0.028,0.013,-0.009
4.0,0.55219996,-0.7432,0.0379,-0.3757,0.013,0.011,-0.009
4.0,0.55379999,-0.74229997,0.0375,-0.3752,0.007,-0.002,-0.015
4.0,0.55540001,-0.7414,0.0371,-0.37469998,0.012,-0.012,-0.023
4.0,0.55699998,-0.74039996,0.0367,-0.37419999,0.01,-0.02,-0.025
4.0,0.55860001,-0.73939997,0.0363,-0.37379998,0.011,-0.031,-0.024
4.0,0.56019998,-0.7385,0.0358,-0.37329999,0.019,-0.04,-0.024
4.0,0.5618,-0.73749995,0.0351,-0.373,0.02,-0.04,-0.024
4.0,0.56339997,-0.73649997,0.0344,-0.37259999,0.013,-0.042,-0.024
4.0,0.565,-0.73539996,0.0336,-0.3725,0.02,-0.043,-0.023
4.0,0.56650001,-0.7342,0.0326,-0.3725,0.015,-0.036,-0.023
4.0,0.56819999,-0.73289996,0.0315,-0.37259999,0.008,-0.029,-0.024
4.0,0.56979996,-0.73159999,0.0303,-0.37279999,0.012,-0.027,-0.024
4.0,0.57139999,-0.73030001,0.0291,-0.373,0.006,-0.024,-0.027
4.0,0.57300001,-0.72899997,0.0278,-0.3732,0.017,-0.022,-0.035
4.0,0.57459998,-0.7277,0.0264,-0.3734,0.022,-0.014,-0.037
4.0,0.57629997,-0.72619998,0.0249,-0.37379998,0.018,-0.004,-0.033
4.0,0.57800001,-0.72459996,0.0233,-0.3743,0.03,0.0,-0.034
4.0,0.57999998,-0.7227,0.0215,-0.37509999,0.028,0.006,-0.039
4.0,0.58199996,-0.72069997,0.0196,-0.3759,0.022,0.007,-0.049
4.0,0.58410001,-0.71859998,0.0176,-0.37669998,0.02,0.01,-0.057
4.0,0.58629996,-0.71639997,0.0155,-0.3777,-0.008,0.023,-0.057
4.0,0.58849996,-0.7141,0.0133,-0.3786,-0.009,0.028,-0.061
4.0,0.59079999,-0.71179998,0.0111,-0.3795,-0.023,0.046,-0.064
4.0,0.59319997,-0.7094,0.0089,-0.38029999,-0.035,0.048,-0.066
4.0,0.59569997,-0.7069,0.0065,-0.38099998,-0.03,0.038,-0.07
4.0,0.5984,-0.7044,0.0041,-0.38149998,-0.034,0.033,-0.074
4.0,0.60119998,-0.70179999,0.0015,-0.38189998,-0.048,0.036,-0.07700001
4.0,0.60409999,-0.69919997,-0.0009,-0.38209999,-0.049,0.041,-0.087
4.0,0.60719997,-0.69639999,-0.0035,-0.38229999,-0.05,0.041,-0.096
4.0,0.61039996,-0.69349998,-0.0063,-0.38239998,-0.045,0.035,-0.09900001
4.0,0.61359996,-0.69059998,-0.0092,-0.38249999,-0.046,0.025,-0.1
4.0,0.61689997,-0.68759996,-0.0121,-0.38249999,-0.036,0.02,-0.104
4.0,0.62029999,-0.6846,-0.0151,-0.38239998,-0.028,0.013,-0.11400001
4.0,0.62360001,-0.68149996,-0.0182,-0.38229999,-0.033,0.002,-0.116
4.0,0.62699997,-0.67829996,-0.0213,-0.38229999,-0.029,-0.006,-0.12
4.0,0.63029999,-0.67519999,-0.0246,-0.3822,-0.029,-0.018,-0.125
4.0,0.63349998,-0.67210001,-0.0279,-0.3822,-0.024,-0.029,-0.127
4.0,0.63669997,-0.66889995,-0.0312,-0.3822,-0.017,-0.03,-0.13800001
4.0,0.63980001,-0.66569996,-0.0345,-0.38229999,-0.011,-0.026,-0.15000001
4.0,0.64289999,-0.66249996,-0.0378,-0.38239998,-0.004,-0.025,-0.164
4.0,0.64579999,-0.65920001,-0.0413,-0.3827,0.0,-0.029,-0.171
4.0,0.6487,-0.65599996,-0.045,-0.3831,0.005,-0.034,-0.17600001
4.0,0.65130001,-0.65270001,-0.049,-0.38369998,0.008,-0.039,-0.17400001
4.0,0.65380001,-0.6494,-0.0533,-0.38439998,0.013,-0.04,-0.17200001
4.0,0.65609998,-0.64609998,-0.0578,-0.3854,0.009,-0.04,-0.16600001
4.0,0.6584,-0.64269996,-0.0623,-0.38659999,0.001,-0.04,-0.16500001
4.0,0.66049999,-0.63929999,-0.0669,-0.38779998,-0.002,-0.039,-0.16700001
4.0,0.66249996,-0.63599998,-0.0714,-0.38909999,-0.003,-0.042,-0.16800001
4.0,0.66429996,-0.63269997,-0.0758,-0.39039999,0.0,-0.04,-0.17
4.0,0.66589999,-0.62970001,-0.0802,-0.39179999,0.008,-0.039,-0.17
4.0,0.66729999,-0.62669998,-0.0847,-0.39319998,0.018,-0.037,-0.16700001
4.0,0.66839999,-0.6239,-0.0891,-0.39479998,0.033,-0.038,-0.16900001
4.0,0.6692,-0.62129998,-0.0936,-0.39649999,0.031,-0.037,-0.16800001
4.0,0.66979998,-0.61879998,-0.098,-0.39829999,0.029,-0.04,-0.156
4.0,0.67009997,-0.61659998,-0.1023,-0.40009999,0.036,-0.042,-0.14600001
4.0,0.67019999,-0.61449999,-0.10659999,-0.40199998,0.047,-0.037,-0.14500001
4.0,0.66999996,-0.61250001,-0.11099999,-0.40419999,0.052,-0.035,-0.14500001
4.0,0.66939998,-0.61059999,-0.1155,-0.4068,0.06,-0.03,-0.142
4.0,0.66850001,-0.60879999,-0.1201,-0.40969998,0.075,-0.013,-0.12800001
4.0,0.66710001,-0.6074,-0.12459999,-0.4127,0.08400001,0.001,-0.123
4.0,0.66530001,-0.6063,-0.12899999,-0.41589999,0.08000001,0.014,-0.119
4.0,0.6631,-0.60549998,-0.13329999,-0.41909999,0.07700001,0.023,-0.104
4.0,0.66060001,-0.60509998,-0.1374,-0.4224,0.093,0.024,-0.10200001
4.0,0.65759999,-0.6049,-0.14129999,-0.42589998,0.119,0.016,-0.10700001
4.0,0.65429997,-0.60499996,-0.1451,-0.42969999,0.16100001,0.004,-0.087
4.0,0.6505,-0.60530001,-0.1487,-0.43379998,0.18300001,0.022,-0.07
4.0,0.64649999,-0.60549998,-0.1521,-0.43829998,0.17600001,0.028,-0.033
4.0,0.64230001,-0.6056,-0.15519999,-0.44309998,0.156,0.011,0.026
4.0,0.63819999,-0.60600001,-0.15789999,-0.44769999,0.115,0.003,0.083
4.0,0.634,-0.60649997,-0.1602,-0.45209998,0.048,0.011,0.11400001
4.0,0.62959999,-0.60749996,-0.16219999,-0.45609999,0.01,0.009,0.083
4.0,0.62489998,-0.60859996,-0.16419999,-0.4603,-0.001,0.005,0.036
4.0,0.61989999,-0.60979998,-0.1665,-0.4648,0.003,-0.01,0.01
4.0,0.61439997,-0.611,-0.169,-0.46959999,0.011,-0.019,0.014
4.0,0.60859996,-0.61199999,-0.17199999,-0.47469997,0.026,-0.024,0.028
4.0,0.60259998,-0.61269999,-0.1753,-0.48009998,0.0,-0.02,0.056
4.0,0.5966,-0.61320001,-0.1788,-0.48569998,-0.005,-0.022,0.08400001
4.0,0.5905,-0.61359996,-0.18239999,-0.49129999,-0.043,-0.012,0.12100001
4.0,0.58459997,-0.61399996,-0.1858,-0.4966,-0.06900001,-0.003,0.15000001
4.0,0.57879996,-0.61449999,-0.18889999,-0.50150001,-0.105,0.009,0.15900001
4.0,0.5733,-0.61519998,-0.1917,-0.50589997,-0.104,0.023,0.15100001
4.0,0.56799996,-0.61610001,-0.19409999,-0.50989997,-0.108,0.036,0.14
4.0,0.56299996,-0.61699998,-0.1961,-0.51349998,-0.09900001,0.032,0.13000001
4.0,0.55829996,-0.61799997,-0.1978,-0.51679999,-0.09100001,0.019,0.13000001
4.0,0.55379999,-0.61909997,-0.19929999,-0.51980001,-0.081,0.009,0.133
4.0,0.54939997,-0.62019998,-0.2007,-0.52249998,-0.068,-0.001,0.13900001
4.0,0.54519999,-0.62119997,-0.20199999,-0.52520001,-0.06500001,-0.006,0.149
4.0,0.54119998,-0.6221,-0.2034,-0.52770001,-0.05,-0.017,0.149
4.0,0.53729999,-0.62290001,-0.20469999,-0.53029996,-0.044,-0.019,0.148
4.0,0.53359997,-0.62349999,-0.2059,-0.53289998,-0.013,-0.032,0.13500001
4.0,0.5302,-0.6239,-0.20699999,-0.53539997,-0.033,-0.043,0.123
4.0,0.52700001,-0.62409997,-0.20799999,-0.53780001,-0.019,-0.054,0.11100001
4.0,0.52410001,-0.6243,-0.20899999,-0.54009998,-0.028,-0.052,0.10200001
4.0,0.52129996,-0.62439996,-0.20989999,-0.54229999,-0.015,-0.052,0.09200001
4.0,0.5187,-0.62439996,-0.21079999,-0.54439998,-0.011,-0.052,0.07
4.0,0.51609999,-0.6243,-0.2119,-0.54659998,0.01,-0.054,0.059
4.0,0.51359999,-0.62409997,-0.213,-0.54879999,0.017,-0.047,0.057
4.0,0.51099998,-0.62379998,-0.21419999,-0.55110002,0.015,-0.05,0.038
4.0,0.50839996,-0.62329996,-0.2156,-0.55339998,0.04,-0.057,0.025
4.0,0.50580001,-0.62279999,-0.2172,-0.55579996,0.043,-0.047,0.031
4.0,0.50319999,-0.62220001,-0.2189,-0.5582,0.05,-0.049,0.025
4.0,0.50049996,-0.62149996,-0.2208,-0.56059998,0.044,-0.046,0.021
4.0,0.49789998,-0.6207,-0.2228,-0.56299996,0.044,-0.046,0.025
4.0,0.49539998,-0.61969995,-0.22489999,-0.56549996,0.06500001,-0.042,0.025
4.0,0.49289998,-0.61849999,-0.22739999,-0.56799996,0.047,-0.034,0.024
4.0,0.49039999,-0.6171,-0.23009999,-0.57049996,0.066,-0.052,0.023
4.0,0.48789999,-0.61549997,-0.233,-0.57319999,0.07,-0.058,0.021
4.0,0.48539999,-0.61369997,-0.23629999,-0.57599998,0.06500001,-0.062,0.019
4.0,0.48289999,-0.6117,-0.23969999,-0.57879996,0.047,-0.061,0.02
4.0,0.48049998,-0.60960001,-0.24319999,-0.58160001,0.034,-0.064,0.026
4.0,0.4781,-0.6074,-0.24669999,-0.58429998,0.026,-0.067,0.029
4.0,0.47569999,-0.60530001,-0.2502,-0.58700001,0.02,-0.071,0.031
4.0,0.47349998,-0.6031,-0.2536,-0.58950001,0.006,-0.083,0.03
4.0,0.47139999,-0.60100001,-0.25709999,-0.59179997,-0.003,-0.09,0.033
4.0,0.46939999,-0.59889996,-0.2608,-0.59399998,-0.021,-0.089,0.034
4.0,0.46759999,-0.5966,-0.26459998,-0.59599996,-0.038,-0.082,0.036
4.0,0.46589997,-0.59419996,-0.26859999,-0.59789997,-0.053,-0.07700001,0.039
4.0,0.46439999,-0.59179997,-0.27269998,-0.59959996,-0.071,-0.072,0.049
4.0,0.46309999,-0.58950001,-0.27669999,-0.60100001,-0.08800001,-0.068,0.055
4.0,0.46219999,-0.58719999,-0.28079998,-0.60209996,-0.098,-0.064,0.064
4.0,0.46159998,-0.58520001,-0.28470001,-0.60259998,-0.10700001,-0.044,0.075
4.0,0.4614,-0.58329999,-0.2886,-0.60280001,-0.104,-0.016,0.075
4.0,0.46149999,-0.58160001,-0.29229999,-0.60259998,-0.09200001,-0.004,0.082
4.0,0.46199998,-0.5801,-0.2958,-0.602,-0.072,0.0,0.09500001
4.0,0.46259999,-0.57879996,-0.29909998,-0.60109997,-0.046,-0.005,0.105
4.0,0.46339998,-0.57769996,-0.30219999,-0.59999996,-0.024,-0.013,0.115
4.0,0.46439999,-0.57679999,-0.3053,-0.59859997,-0.006,-0.019,0.13000001
4.0,0.4655,-0.57599998,-0.30840001,-0.59689999,0.001,-0.017,0.13900001
4.0,0.46669999,-0.57539999,-0.31129998,-0.59490001,0.003,-0.014,0.14600001
4.0,0.4682,-0.57489997,-0.31419998,-0.59279996,0.011,-0.005,0.14
4.0,0.4698,-0.57449996,-0.31689999,-0.59039998,0.016,-0.006,0.13800001
4.0,0.47149998,-0.57419997,-0.3195,-0.58789998,0.022,-0.012,0.13700001
4.0,0.47329998,-0.57419997,-0.32179999,-0.58520001,0.039,-0.019,0.133
4.0,0.4752,-0.57440001,-0.32389998,-0.58239996,0.052,-0.025,0.127
4.0,0.47709998,-0.5747,-0.32589999,-0.5794,0.06,-0.032,0.13000001
4.0,0.479,-0.57499999,-0.32780001,-0.57639998,0.061,-0.026,0.13000001
4.0,0.48099998,-0.57529998,-0.32979998,-0.57339996,0.055,-0.018,0.133
4.0,0.48289999,-0.57539999,-0.3319,-0.5704,0.047,0.027,0.133
4.0,0.4849,-0.57539999,-0.3339,-0.5675,0.036,0.051,0.115
4.0,0.48699999,-0.57539999,-0.33570001,-0.56470001,0.014,0.053,0.116
4.0,0.48889998,-0.57559997,-0.33719999,-0.56189996,0.007,0.045,0.11700001
4.0,0.49089998,-0.57609999,-0.33829999,-0.55900002,0.018,0.035,0.105
4.0,0.49289998,-0.57690001,-0.33899999,-0.55589998,0.02,0.025,0.096
4.0,0.49519998,-0.57800001,-0.33919999,-0.55269998,0.007,0.015,0.094
4.0,0.49759999,-0.57929999,-0.3391,-0.5492,-0.003,0.001,0.096
4.0,0.50010002,-0.58050001,-0.3389,-0.54570001,-0.014,-0.013,0.096
4.0,0.50299996,-0.58179998,-0.33849999,-0.542,-0.024,-0.028,0.09100001
4.0,0.50599998,-0.58309996,-0.33809999,-0.5381,-0.039,-0.026,0.081
4.0,0.50929999,-0.58419997,-0.33739999,-0.5341,-0.058,-0.025,0.061
4.0,0.51289999,-0.58529997,-0.33649999,-0.52999997,-0.079,-0.031,0.04
4.0,0.51669997,-0.5862,-0.33539999,-0.52599996,-0.093,-0.031,0.025
4.0,0.5205,-0.58700001,-0.33419999,-0.52209997,-0.10700001,-0.018,0.002
4.0,0.52429998,-0.58770001,-0.33289999,-0.5183,-0.109,-0.014,-0.021
4.0,0.528,-0.58819997,-0.3317,-0.51489997,-0.098,-0.02,-0.041
4.0,0.53139997,-0.58849996,-0.33049998,-0.51179999,-0.082,-0.04,-0.051
4.0,0.5345,-0.58859998,-0.32969999,-0.50889999,-0.057,-0.052,-0.061
4.0,0.53729999,-0.58859998,-0.329,-0.50639999,-0.047,-0.049,-0.07
4.0,0.53979999,-0.58840001,-0.32870001,-0.50419998,-0.047,-0.025,-0.079
4.0,0.54179996,-0.58789998,-0.32879999,-0.5025,-0.06,0.008,-0.08400001
4.0,0.54369998,-0.5873,-0.32909998,-0.50099999,-0.075,0.046,-0.087
4.0,0.54519999,-0.58649999,-0.32960001,-0.49989998,-0.1,0.09500001,-0.09
4.0,0.54649997,-0.58569998,-0.3303,-0.49899998,-0.11700001,0.127,-0.093
4.0,0.54769999,-0.58489996,-0.33089998,-0.4982,-0.13500001,0.15400001,-0.09100001
4.0,0.54869998,-0.58429998,-0.33159998,-0.49739999,-0.14300001,0.177,-0.085
4.0,0.54979998,-0.5837,-0.3321,-0.49649999,-0.14,0.18300001,-0.082
4.0,0.55070001,-0.58340001,-0.3326,-0.4955,-0.133,0.186,-0.074
4.0,0.5517,-0.58340001,-0.3328,-0.49429998,-0.13100001,0.178,-0.055
4.0,0.55269998,-0.58359998,-0.3328,-0.49289998,-0.125,0.15800001,-0.036
4.0,0.55369997,-0.58410001,-0.33249998,-0.49139997,-0.109,0.12400001,-0.016
4.0,0.5546,-0.58489996,-0.3321,-0.48959997,-0.082,0.085,-0.002
4.0,0.55549997,-0.58590001,-0.33159998,-0.4878,-0.061,0.053,0.005
4.0,0.5564,-0.58709997,-0.3308,-0.48589998,-0.043,0.019,0.01
4.0,0.5571,-0.58840001,-0.32979998,-0.4842,-0.038,-0.004,0.011
4.0,0.55769998,-0.5898,-0.32859999,-0.48259997,-0.036,-0.03,0.009
4.0,0.55809999,-0.59130001,-0.32699999,-0.48139998,-0.043,-0.056,0.007
4.0,0.55849999,-0.59289998,-0.32499999,-0.48029998,-0.051,-0.075,0.004
4.0,0.5589,-0.59450001,-0.32269999,-0.4795,-0.068,-0.08400001,0.0
4.0,0.55919999,-0.59630001,-0.31979999,-0.4788,-0.083,-0.08800001,-0.009
4.0,0.55939996,-0.59829998,-0.31659999,-0.47819999,-0.1,-0.086,-0.02
4.0,0.55970001,-0.60030001,-0.31309998,-0.4777,-0.116,-0.071,-0.034
4.0,0.56,-0.60249996,-0.30899999,-0.4772,-0.132,-0.045,-0.053
4.0,0.56029999,-0.60479999,-0.30449998,-0.47679999,-0.14500001,-0.023,-0.067
4.0,0.56079996,-0.60729998,-0.29960001,-0.47619998,-0.15800001,-0.003,-0.078
4.0,0.56129998,-0.6099,-0.2942,-0.47559997,-0.16800001,0.016,-0.087
4.0,0.56199998,-0.61269999,-0.28839999,-0.47469997,-0.17400001,0.033,-0.09100001
4.0,0.56279999,-0.61570001,-0.2823,-0.47369999,-0.17600001,0.057,-0.098
4.0,0.5636,-0.61869997,-0.27599999,-0.47239998,-0.186,0.07700001,-0.1
4.0,0.56470001,-0.62180001,-0.2694,-0.47079998,-0.19700001,0.09500001,-0.098
4.0,0.56589997,-0.625,-0.26269999,-0.4689,-0.215,0.119,-0.094
4.0,0.56739998,-0.62830001,-0.25569999,-0.46649998,-0.23,0.13500001,-0.09
4.0,0.56919998,-0.63169998,-0.24849999,-0.4637,-0.22600001,0.148,-0.08800001
4.0,0.5711,-0.63529998,-0.241,-0.4605,-0.21400002,0.15700001,-0.089
4.0,0.57309997,-0.63889998,-0.23339999,-0.45679998,-0.208,0.162,-0.086
4.0,0.57519996,-0.64269996,-0.22579999,-0.45279998,-0.20200001,0.171,-0.079
4.0,0.57730001,-0.64649999,-0.2181,-0.44839999,-0.19700001,0.17900001,-0.071
4.0,0.5794,-0.65020001,-0.2105,-0.4438,-0.193,0.18300001,-0.07
4.0,0.58160001,-0.65389997,-0.20289999,-0.4391,-0.18800001,0.18000001,-0.071
4.0,0.58379996,-0.65759999,-0.1952,-0.4341,-0.192,0.17,-0.074
4.0,0.58609998,-0.66119999,-0.1876,-0.4289,-0.19500001,0.15800001,-0.07700001
4.0,0.58840001,-0.66479999,-0.1797,-0.4235,-0.208,0.14400001,-0.075
4.0,0.59079999,-0.66839999,-0.1716,-0.41769999,-0.215,0.12800001,-0.08000001
4.0,0.5934,-0.67210001,-0.16319999,-0.41159999,-0.22100002,0.115,-0.079
4.0,0.59599996,-0.67589998,-0.15429999,-0.40489998,-0.22600001,0.10200001,-0.086
4.0,0.5988,-0.6796,-0.145,-0.39789999,-0.22800002,0.09100001,-0.09100001
4.0,0.60179996,-0.68329996,-0.13519999,-0.39039999,-0.22800002,0.085,-0.10300001
4.0,0.60499996,-0.68699998,-0.125,-0.38239998,-0.22800002,0.08800001,-0.11400001
4.0,0.60839999,-0.69049996,-0.1143,-0.37399998,-0.23400001,0.097,-0.12900001
4.0,0.61199999,-0.69379997,-0.1032,-0.36499998,-0.24100001,0.11000001,-0.14600001
4.0,0.616,-0.69699997,-0.0915,-0.35529998,-0.23900001,0.109,-0.16600001
4.0,0.62009996,-0.69999999,-0.0793,-0.34509999,-0.23300001,0.10700001,-0.17500001
4.0,0.6243,-0.70279998,-0.0669,-0.33429998,-0.21600001,0.10300001,-0.185
4.0,0.62869996,-0.70519996,-0.0543,-0.3231,-0.21200001,0.10600001,-0.19700001
4.0,0.63309997,-0.70719999,-0.0417,-0.31169999,-0.20200001,0.112,-0.21100001
4.0,0.63779998,-0.70859998,-0.0293,-0.3001,-0.18200001,0.11800001,-0.22900002
4.0,0.6426,-0.70949996,-0.0172,-0.28869998,-0.17400001,0.12100001,-0.24100001
4.0,0.64739996,-0.7098,-0.0055,-0.2773,-0.16000001,0.12100001,-0.24800001
4.0,0.6523,-0.70949996,0.0058,-0.26609999,-0.15300001,0.119,-0.25100002
4.0,0.6573,-0.70889997,0.0168,-0.25509998,-0.147,0.115,-0.25300002
4.0,0.66219997,-0.70769995,0.0274,-0.24439999,-0.147,0.109,-0.25600001
4.0,0.66710001,-0.7062,0.0375,-0.2339,-0.148,0.09900001,-0.25600001
4.0,0.67199999,-0.70419997,0.0471,-0.22389999,-0.147,0.09100001,-0.26000002
4.0,0.67689997,-0.70190001,0.0563,-0.21419999,-0.141,0.085,-0.266
4.0,0.68180001,-0.69909996,0.0649,-0.20479999,-0.13900001,0.079,-0.27200001
4.0,0.6868,-0.69599998,0.0731,-0.19569999,-0.13900001,0.072,-0.27500001
4.0,0.6918,-0.69260001,0.0809,-0.18679999,-0.13800001,0.064,-0.273
4.0,0.69690001,-0.68889999,0.0883,-0.17809999,-0.13600001,0.055,-0.27200001
4.0,0.70199996,-0.685,0.0953,-0.16949999,-0.13900001,0.047,-0.27100003
4.0,0.70709997,-0.68079996,0.10179999,-0.1611,-0.13600001,0.043,-0.273
4.0,0.7123,-0.67640001,0.1078,-0.153,-0.12800001,0.042,-0.27500001
4.0,0.71749997,-0.6717,0.1134,-0.1452,-0.12400001,0.048,-0.27900001
4.0,0.7227,-0.66670001,0.11849999,-0.13769999,-0.115,0.056,-0.28500003
4.0,0.72799999,-0.66159999,0.123,-0.13059999,-0.105,0.06,-0.294
4.0,0.73329997,-0.65619999,0.127,-0.1239,-0.093,0.047,-0.30800003
4.0,0.73869997,-0.65069997,0.1302,-0.1177,-0.074,0.02,-0.32600001
4.0,0.74409997,-0.64499998,0.13229999,-0.11229999,-0.055,-0.001,-0.33700001
4.0,0.74959999,-0.63919997,0.13349999,-0.1076,-0.034,-0.015,-0.35000002
4.0,0.75509995,-0.63339996,0.13329999,-0.1038,-0.022,-0.015,-0.36000001
4.0,0.76059997,-0.6275,0.132,-0.1007,-0.017,-0.002,-0.36900002
4.0,0.76620001,-0.62159997,0.12969999,-0.0984,-0.011,0.019,-0.37300003
4.0,0.77160001,-0.61570001,0.1261,-0.0972,-0.001,0.052,-0.37400001
4.0,0.77689999,-0.61000001,0.1215,-0.0969,0.011,0.06900001,-0.36800003
4.0,0.78179997,-0.60469997,0.11589999,-0.0976,0.023,0.07600001,-0.354
4.0,0.78619999,-0.59990001,0.1095,-0.0992,0.031,0.078,-0.33800003
4.0,0.79029995,-0.59549999,0.1024,-0.1012,0.036,0.086,-0.32200003
4.0,0.79399997,-0.59139997,0.0947,-0.1034,0.033,0.112,-0.29100001
4.0,0.79729998,-0.58779997,0.0867,-0.10569999,0.035,0.14,-0.25100002
4.0,0.80009997,-0.58469999,0.0783,-0.10789999,0.039,0.148,-0.20100001
4.0,0.80239999,-0.58230001,0.0699,-0.1099,0.037,0.126,-0.13000001
4.0,0.80409998,-0.58059996,0.0615,-0.1116,0.033,0.079,-0.072
4.0,0.80519998,-0.57959998,0.0536,-0.1129,0.024,0.024,-0.011
4.0,0.8057,-0.5794,0.0465,-0.1135,0.012,-0.037,0.044
4.0,0.80579996,-0.57980001,0.0407,-0.1131,0.006,-0.07300001,0.079
4.0,0.80559999,-0.58050001,0.0363,-0.1118,0.01,-0.10700001,0.11100001
4.0,0.80539995,-0.58149999,0.0341,-0.1092,0.009,-0.12400001,0.14
4.0,0.80500001,-0.58270001,0.034,-0.1054,0.021,-0.127,0.156
4.0,0.8046,-0.58389997,0.0358,-0.1008,0.031,-0.10700001,0.15400001
4.0,0.80429995,-0.58499998,0.0395,-0.0957,0.032,-0.062,0.14300001
4.0,0.80399996,-0.58590001,0.0443,-0.0903,0.042,-0.025,0.13000001
4.0,0.8039,-0.58649999,0.0498,-0.0848,0.06900001,-0.004,0.10300001
4.0,0.80379999,-0.58679998,0.0555,-0.0796,0.098,-0.001,0.08400001
4.0,0.80369997,-0.58709997,0.0608,-0.0748,0.12100001,-0.003,0.078
4.0,0.8035,-0.58739996,0.0657,-0.0707,0.13100001,-0.002,0.07700001
4.0,0.80309999,-0.58770001,0.07009999,-0.067,0.125,0.0,0.08400001
4.0,0.80269998,-0.58809996,0.0742,-0.0637,0.11000001,0.0,0.094
4.0,0.80229998,-0.58859998,0.0781,-0.0609,0.085,-0.001,0.11100001
4.0,0.80179995,-0.58899999,0.0818,-0.0584,0.055,0.001,0.127
4.0,0.80119997,-0.58939999,0.0856,-0.0561,0.027,0.0,0.13800001
4.0,0.80070001,-0.58969998,0.0895,-0.054,0.006,-0.001,0.14500001
4.0,0.80019999,-0.58999997,0.0936,-0.0518,-0.007,-0.009,0.141
4.0,0.79969996,-0.59020001,0.098,-0.0495,-0.025,-0.021,0.13500001
4.0,0.7992,-0.59020001,0.1026,-0.047,-0.038,-0.041,0.127
4.0,0.79869998,-0.59029996,0.1076,-0.0443,-0.052,-0.052,0.12
4.0,0.79809999,-0.59020001,0.113,-0.0412,-0.059,-0.064,0.109
4.0,0.79749995,-0.59020001,0.1187,-0.0378,-0.068,-0.07600001,0.101
4.0,0.79679996,-0.59009999,0.12469999,-0.0341,-0.064,-0.08400001,0.1
4.0,0.79609996,-0.58989996,0.1309,-0.0302,-0.051,-0.079,0.09900001
4.0,0.79549998,-0.58950001,0.1372,-0.0263,-0.04,-0.06500001,0.101
4.0,0.7949,-0.58899999,0.1436,-0.0224,-0.024,-0.049,0.105
4.0,0.79449999,-0.58809996,0.14989999,-0.0186,-0.012,-0.036,0.126
4.0,0.79409999,-0.58700001,0.15619999,-0.0148,-0.014,-0.024,0.126
4.0,0.79389995,-0.58569998,0.16249999,-0.0109,-0.027,-0.014,0.11800001
4.0,0.79359996,-0.58429998,0.1689,-0.0068,-0.037,-0.015,0.1
4.0,0.79329997,-0.58289999,0.1753,-0.0026,-0.045,-0.019,0.08000001
4.0,0.79299998,-0.58139998,0.18189999,0.0018,-0.05,-0.028,0.057
4.0,0.7924,-0.57980001,0.18879999,0.0065,-0.043,-0.039,0.034
4.0,0.79179996,-0.5783,0.19579999,0.0113,-0.033,-0.04,0.014
4.0,0.79089999,-0.57690001,0.20299999,0.0161,-0.015,-0.038,-0.003
4.0,0.78999996,-0.57550001,0.20999999,0.0208,0.005,-0.044,-0.014
4.0,0.78909999,-0.574,0.21689999,0.0253,0.017,-0.053,-0.014
4.0,0.78799999,-0.57260001,0.22369999,0.0297,0.028,-0.064,-0.015
4.0,0.78689998,-0.57129997,0.2304,0.0339,0.036,-0.075,-0.017
4.0,0.78569996,-0.57010001,0.2368,0.0379,0.036,-0.082,-0.022
4.0,0.78439999,-0.56900001,0.243,0.0415,0.034,-0.094,-0.036
4.0,0.78299999,-0.56799996,0.249,0.0448,0.032,-0.096,-0.034
4.0,0.7816,-0.56709999,0.255,0.048,0.025,-0.096,-0.027
4.0,0.77999997,-0.56629997,0.26100001,0.051,0.027,-0.098,-0.029
4.0,0.77829999,-0.56559998,0.2669,0.0538,0.017,-0.10300001,-0.029
4.0,0.77649999,-0.565,0.2728,0.0565,0.018,-0.11300001,-0.03
4.0,0.77459997,-0.56449997,0.27869999,0.059,0.021,-0.126,-0.033
4.0,0.77269995,-0.56400001,0.2845,0.0615,0.023,-0.13600001,-0.029
4.0,0.77059996,-0.5636,0.29009998,0.0638,0.036,-0.14,-0.025
4.0,0.7687,-0.56339997,0.29539999,0.0659,0.029,-0.13600001,-0.025
4.0,0.76669997,-0.56309998,0.30039999,0.0678,0.021,-0.13900001,-0.026
4.0,0.76489997,-0.56290001,0.30489999,0.0696,0.034,-0.15000001,-0.03
4.0,0.76319999,-0.56290001,0.3089,0.07099999,0.025,-0.149,-0.022
4.0,0.76159996,-0.56299996,0.31239998,0.07229999,0.024,-0.14600001,-0.016
4.0,0.76010001,-0.5632,0.31529999,0.0735,0.025,-0.141,-0.016
4.0,0.75879997,-0.56369996,0.3175,0.0743,0.015,-0.12400001,-0.008
4.0,0.75749999,-0.5643,0.31919998,0.0749,0.01,-0.11100001,0.0
4.0,0.75639999,-0.56510001,0.32029998,0.07539999,-0.005,-0.098,0.011
4.0,0.75549996,-0.56599998,0.32099998,0.0758,-0.022,-0.08800001,0.031
4.0,0.75449997,-0.56699997,0.32119998,0.0762,-0.035,-0.082,0.043
4.0,0.75369996,-0.56819999,0.3211,0.0765,-0.042,-0.066,0.045
4.0,0.75279999,-0.56949997,0.32069999,0.0769,-0.055,-0.046,0.045
4.0,0.75199997,-0.57080001,0.3202,0.0771,-0.07,-0.031,0.046
4.0,0.75119996,-0.57229996,0.3195,0.0775,-0.08400001,-0.012,0.052
4.0,0.75040001,-0.57370001,0.31869999,0.0779,-0.093,0.004,0.063
4.0,0.74959999,-0.5751,0.31779999,0.0785,-0.096,0.023,0.075
4.0,0.74879998,-0.57660002,0.3168,0.0792,-0.096,0.043,0.089
4.0,0.74809998,-0.57800001,0.31579998,0.08,-0.09100001,0.061,0.104
4.0,0.74739999,-0.5794,0.31469998,0.081,-0.094,0.09500001,0.116
4.0,0.74669999,-0.58069998,0.3134,0.0822,-0.085,0.132,0.119
4.0,0.74619997,-0.58199996,0.31200001,0.0836,-0.094,0.17300001,0.123
4.0,0.74579996,-0.58309996,0.31039998,0.0854,-0.093,0.23200001,0.12200001
4.0,0.74539995,-0.58410001,0.30879998,0.0875,-0.094,0.28300002,0.11800001
4.0,0.74509996,-0.5851,0.3071,0.0901,-0.09,0.32200003,0.11000001
4.0,0.74469995,-0.58590001,0.3055,0.0933,-0.09,0.347,0.105
4.0,0.74419999,-0.58660001,0.30410001,0.0971,-0.085,0.34800002,0.105
4.0,0.74349999,-0.58739996,0.30289999,0.1014,-0.07600001,0.33500001,0.108
4.0,0.74250001,-0.588,0.30230001,0.1064,-0.063,0.31,0.112
4.0,0.74129999,-0.58859998,0.3021,0.11189999,-0.048,0.27400002,0.11100001
4.0,0.73989999,-0.58899999,0.30249998,0.1179,-0.031,0.22800002,0.10600001
4.0,0.73839998,-0.58919996,0.30339998,0.12419999,-0.017,0.16700001,0.097
4.0,0.7367,-0.58929998,0.30469999,0.13069999,-0.005,0.119,0.083
4.0,0.7349,-0.5891,0.30629998,0.1374,0.008,0.068,0.063
4.0,0.7331,-0.5887,0.30840001,0.1441,0.018,0.019,0.045
4.0,0.73119998,-0.58819997,0.31059998,0.1507,0.024,-0.02,0.029
4.0,0.72939998,-0.58739996,0.31309998,0.15709999,0.021,-0.06,0.012
4.0,0.7277,-0.58639997,0.31569999,0.1635,0.019,-0.086,-0.004
4.0,0.72600001,-0.58529997,0.3184,0.1697,0.018,-0.10700001,-0.023
4.0,0.72439998,-0.58389997,0.3213,0.1758,0.015,-0.123,-0.047
4.0,0.72310001,-0.58219999,0.32409999,0.18159999,0.02,-0.13100001,-0.071
4.0,0.722,-0.58029997,0.32690001,0.18719999,0.026,-0.127,-0.094
4.0,0.72109997,-0.57809997,0.32960001,0.19239999,0.033,-0.11100001,-0.115
4.0,0.72049999,-0.57569999,0.3321,0.19739999,0.04,-0.089,-0.132
4.0,0.72009999,-0.57319999,0.3344,0.2024,0.044,-0.054,-0.148
4.0,0.71999997,-0.5704,0.3364,0.20739999,0.047,-0.013,-0.16100001
4.0,0.72009999,-0.56739998,0.33789998,0.21229999,0.05,0.02,-0.16800001
4.0,0.72049999,-0.56449997,0.3389,0.2173,0.054,0.057,-0.17900001
4.0,0.72109997,-0.56159997,0.33929998,0.22209999,0.051,0.094,-0.18800001
4.0,0.72189999,-0.55869997,0.33919999,0.22679999,0.047,0.11400001,-0.19700001
4.0,0.72279996,-0.55599999,0.33879998,0.2313,0.047,0.12,-0.19500001
4.0,0.72369999,-0.55360001,0.3378,0.23549999,0.057,0.119,-0.192
4.0,0.72479999,-0.55129999,0.33649999,0.2393,0.074,0.109,-0.18300001
4.0,0.72589999,-0.54939997,0.3348,0.24259999,0.083,0.10300001,-0.17
4.0,0.72709996,-0.5478,0.333,0.2454,0.081,0.09900001,-0.171
4.0,0.72839999,-0.54619998,0.3308,0.24779999,0.078,0.09100001,-0.17
4.0,0.72999996,-0.54469997,0.3285,0.24969999,0.08000001,0.06900001,-0.15800001
4.0,0.73149997,-0.54350001,0.32589999,0.2511,0.096,0.03,-0.16100001
4.0,0.73289996,-0.54269999,0.32339999,0.25220001,0.09900001,-0.006,-0.18000001
4.0,0.7342,-0.54219997,0.3206,0.25299999,0.093,-0.037,-0.19700001
4.0,0.73539996,-0.54189998,0.3179,0.2536,0.08800001,-0.068,-0.20600002
4.0,0.73649997,-0.54189998,0.31509998,0.25400001,0.083,-0.096,-0.20600002
4.0,0.73759997,-0.54189998,0.3125,0.25409999,0.064,-0.105,-0.19700001
4.0,0.73869997,-0.54189998,0.3098,0.25389999,0.044,-0.10200001,-0.19100001
4.0,0.73989999,-0.542,0.30719998,0.25349998,0.027,-0.083,-0.18800001
4.0,0.74119997,-0.542,0.30449998,0.25279999,0.015,-0.062,-0.18800001
4.0,0.74259996,-0.54189998,0.30199999,0.2518,-0.003,-0.043,-0.185
4.0,0.74409997,-0.54189998,0.29960001,0.2507,-0.018,-0.019,-0.18400002
4.0,0.74539995,-0.54189998,0.2974,0.24939999,-0.034,0.008,-0.18300001
4.0,0.74649996,-0.54189998,0.29549998,0.2482,-0.036,0.029,-0.185
4.0,0.7475,-0.54179996,0.29389998,0.24699999,-0.039,0.038,-0.177
4.0,0.74849999,-0.54179996,0.2924,0.24609999,-0.035,0.042,-0.16900001
4.0,0.74939996,-0.54170001,0.29089999,0.24519999,-0.029,0.039,-0.162
4.0,0.75019997,-0.54179996,0.28939998,0.24429999,-0.018,0.029,-0.15700001
4.0,0.7511,-0.542,0.28759998,0.24319999,-0.009,0.019,-0.15100001
4.0,0.75199997,-0.5424,0.28569999,0.242,0.009,0.006,-0.15100001
4.0,0.7529,-0.54289997,0.2836,0.24049999,0.021,0.0,-0.164
4.0,0.75369996,-0.54350001,0.2816,0.23869999,0.007,0.004,-0.171
4.0,0.75459999,-0.54409999,0.27969998,0.2368,-0.012,0.007,-0.17600001
4.0,0.75549996,-0.54479998,0.27779999,0.23469999,-0.03,0.008,-0.17500001
4.0,0.75650001,-0.54539996,0.27590001,0.2324,-0.038,0.008,-0.171
4.0,0.75739998,-0.54609996,0.27410001,0.2298,-0.041,0.011,-0.16800001
4.0,0.75830001,-0.54699999,0.2723,0.2269,-0.042,0.012,-0.163
4.0,0.75919998,-0.54789996,0.27059999,0.22369999,-0.041,0.01,-0.15900001
4.0,0.75999999,-0.54909998,0.26879999,0.2201,-0.043,0.01,-0.15200001
4.0,0.76089996,-0.5503,0.26699999,0.21619999,-0.052,0.007,-0.148
4.0,0.76179999,-0.55159998,0.26519999,0.2121,-0.06,0.001,-0.141
4.0,0.76269996,-0.55289996,0.26339999,0.2075,-0.078,-0.001,-0.132
4.0,0.76370001,-0.55409998,0.2617,0.20279999,-0.09100001,0.002,-0.127
4.0,0.76459998,-0.55540001,0.25999999,0.1978,-0.104,0.014,-0.12
4.0,0.76550001,-0.55659997,0.25849998,0.1928,-0.11700001,0.033,-0.116
4.0,0.76639998,-0.55769998,0.257,0.18769999,-0.126,0.045,-0.11100001
4.0,0.76730001,-0.5589,0.25569999,0.18269999,-0.133,0.055,-0.10700001
4.0,0.76800001,-0.56,0.25459999,0.1776,-0.14,0.056,-0.104
4.0,0.76859999,-0.56129998,0.2536,0.1726,-0.149,0.053,-0.1
4.0,0.76899999,-0.5625,0.25279999,0.16759999,-0.15100001,0.048,-0.098
4.0,0.76929998,-0.56389999,0.25220001,0.1627,-0.15800001,0.045,-0.098
4.0,0.76949996,-0.56519997,0.2516,0.1577,-0.16500001,0.043,-0.097
4.0,0.76969999,-0.56650001,0.25130001,0.15279999,-0.17600001,0.052,-0.097
4.0,0.76980001,-0.56769997,0.2511,0.1479,-0.19000001,0.072,-0.098
4.0,0.76989996,-0.56879997,0.2511,0.14289999,-0.21300001,0.104,-0.096
4.0,0.7701,-0.56979996,0.25119999,0.13789999,-0.21900001,0.14400001,-0.098
4.0,0.77019995,-0.57069999,0.25139999,0.1329,-0.23200001,0.18000001,-0.09500001
4.0,0.77029997,-0.57159996,0.25169998,0.12789999,-0.22500001,0.20600002,-0.09500001
4.0,0.7705,-0.57239997,0.25209999,0.1228,-0.21400002,0.21700001,-0.087
4.0,0.7705,-0.57319999,0.2525,0.1177,-0.20300001,0.23100001,-0.067
4.0,0.7705,-0.574,0.25299999,0.1124,-0.17400001,0.24800001,-0.051
4.0,0.77039999,-0.57489997,0.25369999,0.1072,-0.156,0.25600001,-0.039
4.0,0.77019995,-0.57589996,0.2543,0.10179999,-0.12,0.23800001,-0.025
4.0,0.76989996,-0.5772,0.2545,0.096,-0.07300001,0.21600001,0.011
4.0,0.7694,-0.57889998,0.25439999,0.0897,-0.04,0.19900002,0.04
4.0,0.76879996,-0.58090001,0.25389999,0.083,-0.023,0.185,0.081
4.0,0.76800001,-0.58329999,0.25319999,0.076,-0.004,0.16000001,0.127
4.0,0.7669,-0.58579999,0.2525,0.0687,0.01,0.12400001,0.15100001
4.0,0.76569998,-0.58829999,0.25220001,0.0614,0.019,0.09200001,0.16500001
4.0,0.76440001,-0.59060001,0.2525,0.0543,0.035,0.056,0.178
4.0,0.76279998,-0.59279996,0.25349998,0.0476,0.044,0.034,0.18900001
4.0,0.76119995,-0.59459996,0.25529999,0.0412,0.053,0.013,0.19100001
4.0,0.75949997,-0.59599996,0.2581,0.0355,0.07600001,-0.009,0.18200001
4.0,0.75769997,-0.59709996,0.26139998,0.0302,0.094,-0.022,0.17
4.0,0.75589997,-0.59799999,0.26499999,0.0255,0.12200001,-0.034,0.155
4.0,0.75419998,-0.59859997,0.2687,0.0213,0.15300001,-0.05,0.14
4.0,0.75259995,-0.59920001,0.2721,0.0175,0.16800001,-0.06500001,0.134
4.0,0.7511,-0.59969997,0.2753,0.0141,0.17600001,-0.07600001,0.12900001
4.0,0.74979997,-0.6002,0.278,0.0107,0.17900001,-0.078,0.127
4.0,0.74860001,-0.6006,0.28029999,0.0074,0.15800001,-0.07600001,0.12400001
4.0,0.74759996,-0.60100001,0.28239998,0.004,0.126,-0.074,0.12100001
4.0,0.74680001,-0.60109997,0.2843,0.0006,0.086,-0.086,0.13900001
4.0,0.74589998,-0.60119998,0.28639999,-0.0024,0.057,-0.07300001,0.14300001
4.0,0.745,-0.60119998,0.2888,-0.0053,0.019,-0.066,0.15700001
4.0,0.74399996,-0.60100001,0.2915,-0.0077,-0.007,-0.06,0.16600001
4.0,0.74299997,-0.60069996,0.29459998,-0.0097,-0.035,-0.056,0.17300001
4.0,0.74199998,-0.60030001,0.29789999,-0.0112,-0.062,-0.061,0.18000001
4.0,0.741,-0.59979999,0.30129999,-0.0124,-0.086,-0.07,0.186
4.0,0.74000001,-0.59929997,0.30489999,-0.0131,-0.11400001,-0.079,0.19400001
4.0,0.73899996,-0.59859997,0.30859998,-0.0133,-0.147,-0.089,0.20500001
4.0,0.73799998,-0.59779996,0.3125,-0.0131,-0.16500001,-0.093,0.21300001
4.0,0.73710001,-0.59679997,0.31649998,-0.0124,-0.18700001,-0.097,0.21700001
4.0,0.73619998,-0.59569997,0.3206,-0.011,-0.19900002,-0.09900001,0.22500001
4.0,0.73539996,-0.59439999,0.32499999,-0.0092,-0.21400002,-0.09900001,0.223
4.0,0.73469996,-0.59279996,0.32949999,-0.0067,-0.22800002,-0.09200001,0.22200002
4.0,0.73399997,-0.59099996,0.33429998,-0.0034,-0.24000001,-0.078,0.21600001
4.0,0.73329997,-0.58899999,0.33939999,0.0007,-0.24800001,-0.061,0.21000001
4.0,0.73249996,-0.58679998,0.3448,0.006,-0.24300002,-0.036,0.19500001
4.0,0.7317,-0.5844,0.35049999,0.0123,-0.23500001,-0.019,0.17900001
4.0,0.73069996,-0.58179998,0.3565,0.0196,-0.22400001,-0.009,0.16500001
4.0,0.7295,-0.57910001,0.36269999,0.0277,-0.20500001,-0.003,0.149
4.0,0.72819996,-0.57620001,0.3691,0.0366,-0.178,-0.005,0.133
4.0,0.72670001,-0.57309997,0.3757,0.0461,-0.147,-0.016,0.11800001
4.0,0.72509998,-0.56989998,0.38229999,0.0561,-0.11000001,-0.037,0.105
4.0,0.72329998,-0.56659997,0.3888,0.0664,-0.081,-0.056,0.096
4.0,0.72139996,-0.5632,0.3953,0.0768,-0.052,-0.072,0.079
4.0,0.71929997,-0.55979997,0.40179998,0.0873,-0.017,-0.08000001,0.052
4.0,0.71719998,-0.55610001,0.40809998,0.09779999,0.011,-0.082,0.023
4.0,0.71509999,-0.55239999,0.41419998,0.1083,0.036,-0.086,-0.012
4.0,0.71309996,-0.5485,0.4199,0.1188,0.05,-0.087,-0.045
4.0,0.7112,-0.54449999,0.42519999,0.1293,0.063,-0.089,-0.07700001
4.0,0.70949996,-0.5406,0.4298,0.1397,0.081,-0.094,-0.11700001
4.0,0.708,-0.53670001,0.43359998,0.1498,0.105,-0.098,-0.13900001
4.0,0.70679998,-0.53310001,0.4366,0.1594,0.13000001,-0.10300001,-0.149
4.0,0.7058,-0.52999997,0.4386,0.16839999,0.14600001,-0.11000001,-0.15100001
4.0,0.70519996,-0.5273,0.43969998,0.1767,0.142,-0.11800001,-0.13900001
4.0,0.70480001,-0.52509999,0.43969998,0.18429999,0.126,-0.12100001,-0.11300001
4.0,0.70480001,-0.52340001,0.43879998,0.19129999,0.094,-0.12100001,-0.07600001
4.0,0.70499998,-0.52219999,0.43699998,0.19759999,0.07,-0.108,-0.049
4.0,0.70539999,-0.52149999,0.43469998,0.2032,0.052,-0.066,-0.023
4.0,0.7058,-0.5212,0.43199998,0.20819999,0.046,0.017,-0.017
4.0,0.70629996,-0.5212,0.42909998,0.21259999,0.033,0.12200001,-0.028
4.0,0.70660001,-0.52129996,0.42629999,0.21669999,0.007,0.21600001,-0.03
4.0,0.70679998,-0.52149999,0.42369998,0.2208,-0.03,0.27200001,-0.028
4.0,0.70660001,-0.52169997,0.4215,0.22499999,-0.07,0.28600001,-0.025
4.0,0.70589995,-0.5219,0.41999999,0.2297,-0.11000001,0.273,-0.023
4.0,0.7044,-0.52200001,0.41939998,0.235,-0.13800001,0.24300002,-0.019
4.0,0.70239997,-0.52169997,0.41979998,0.24079999,-0.148,0.20400001,-0.016
4.0,0.69979995,-0.52090001,0.42139998,0.2473,-0.156,0.164,-0.021
4.0,0.69679999,-0.5194,0.42399999,0.25419998,-0.162,0.133,-0.027
4.0,0.69349998,-0.51730001,0.42749998,0.26159999,-0.15900001,0.108,-0.034
4.0,0.69009995,-0.51449996,0.43169999,0.26929998,-0.148,0.081,-0.055
4.0,0.68659997,-0.51089996,0.43629998,0.27739999,-0.132,0.058,-0.079
4.0,0.6832,-0.50690001,0.4411,0.28560001,-0.108,0.032,-0.101
4.0,0.67989999,-0.50229996,0.44589999,0.294,-0.081,0.007,-0.12100001
4.0,0.67659998,-0.49759999,0.4506,0.30230001,-0.061,-0.006,-0.13000001
4.0,0.6735,-0.4928,0.45499998,0.31039998,-0.049,-0.011,-0.13600001
4.0,0.67069995,-0.48809999,0.45879999,0.31810001,-0.043,-0.006,-0.14300001
4.0,0.6681,-0.48369998,0.4621,0.32539999,-0.044,0.001,-0.149
4.0,0.66589999,-0.47959998,0.46489999,0.3321,-0.054,0.019,-0.155
4.0,0.66389996,-0.47589999,0.46709999,0.3382,-0.067,0.04,-0.15800001
4.0,0.662,-0.4725,0.4691,0.34379998,-0.086,0.063,-0.156
4.0,0.66029996,-0.46919999,0.47099999,0.34909999,-0.11800001,0.08800001,-0.15000001
4.0,0.6584,-0.46589997,0.47319999,0.35409999,-0.149,0.11000001,-0.14500001
4.0,0.65619999,-0.4623,0.47579998,0.35909998,-0.178,0.12900001,-0.14
4.0,0.65369999,-0.4585,0.47909999,0.36429998,-0.21000001,0.14,-0.132
4.0,0.65059996,-0.4542,0.48319998,0.3698,-0.22200002,0.14400001,-0.13000001
4.0,0.6469,-0.44929999,0.48819998,0.37559998,-0.22600001,0.141,-0.12800001
4.0,0.64249998,-0.44369999,0.49409997,0.38209999,-0.215,0.12900001,-0.134
4.0,0.63739997,-0.4375,0.50080001,0.38889998,-0.19500001,0.11800001,-0.14300001
4.0,0.63190001,-0.43059999,0.50809997,0.39609998,-0.17400001,0.109,-0.155
4.0,0.6261,-0.42309999,0.51569998,0.40359998,-0.15100001,0.10200001,-0.171
4.0,0.62,-0.41509998,0.52340001,0.41119999,-0.13500001,0.1,-0.186
4.0,0.61390001,-0.40669999,0.53099996,0.41889998,-0.12100001,0.098,-0.208
4.0,0.60799998,-0.39809999,0.5381,0.4267,-0.11000001,0.08800001,-0.23200001
4.0,0.60219997,-0.38959998,0.54469997,0.43429998,-0.104,0.075,-0.25
4.0,0.5966,-0.38119999,0.55079997,0.4418,-0.09900001,0.057,-0.27000001
4.0,0.59109998,-0.373,0.55629998,0.44919997,-0.09900001,0.041,-0.28200001
4.0,0.58579999,-0.3651,0.56119996,0.45649999,-0.105,0.039,-0.29500002
4.0,0.58050001,-0.3574,0.56569999,0.4637,-0.11700001,0.038,-0.31300002
4.0,0.57529998,-0.34989998,0.56979996,0.47079998,-0.12800001,0.038,-0.33000001
4.0,0.56999999,-0.3427,0.57359999,0.4779,-0.13600001,0.035,-0.347
4.0,0.56470001,-0.33559999,0.5772,0.4849,-0.13600001,0.031,-0.36500001
4.0,0.55930001,-0.32870001,0.58059996,0.49179998,-0.133,0.027,-0.38100001
4.0,0.55360001,-0.322,0.58399999,0.49859998,-0.12400001,0.026,-0.39500001
4.0,0.5478,-0.31529999,0.5873,0.50529999,-0.11000001,0.029,-0.40500003
4.0,0.54179996,-0.30879998,0.59060001,0.51190001,-0.09500001,0.036,-0.40900001
4.0,0.53579998,-0.30230001,0.59389997,0.51840001,-0.074,0.045,-0.41500002
4.0,0.52969998,-0.29589999,0.59689999,0.52469999,-0.05,0.054,-0.41800001
4.0,0.52380002,-0.28979999,0.59979999,0.53079998,-0.024,0.053,-0.42000002
4.0,0.51789999,-0.28380001,0.6024,0.53679997,0.008,0.05,-0.41900003
4.0,0.5122,-0.2782,0.60479999,0.5424,0.042,0.044,-0.41700003
4.0,0.50669998,-0.273,0.60699999,0.54769999,0.066,0.038,-0.40900001
4.0,0.50159997,-0.26819998,0.60890001,0.55269998,0.09200001,0.03,-0.39700001
4.0,0.49699998,-0.26389998,0.61039996,0.55729997,0.11100001,0.017,-0.37800002
4.0,0.4928,-0.26019999,0.61159998,0.5614,0.127,0.006,-0.35700002
4.0,0.48929998,-0.257,0.61250001,0.565,0.13700001,-0.002,-0.33100003
4.0,0.48639998,-0.2543,0.61299998,0.56809998,0.13700001,-0.008,-0.31
4.0,0.48409998,-0.25189999,0.61329997,0.57080001,0.12900001,-0.013,-0.28300002
4.0,0.48249999,-0.2499,0.61339998,0.57300001,0.11100001,-0.012,-0.25300002
4.0,0.48139998,-0.248,0.61339998,0.57480001,0.09100001,-0.008,-0.23400001
4.0,0.48079997,-0.2462,0.61320001,0.57620001,0.063,0.003,-0.22100002
4.0,0.48069999,-0.24419999,0.61299998,0.57730001,0.033,0.018,-0.21100001
4.0,0.48089999,-0.2421,0.61289996,0.57819998,0.0,0.034,-0.20600002
4.0,0.48109999,-0.23969999,0.6128,0.57910001,-0.032,0.046,-0.19900002
4.0,0.48119998,-0.23699999,0.61299998,0.57989997,-0.068,0.056,-0.19100001
4.0,0.48119998,-0.234,0.61339998,0.5808,-0.094,0.062,-0.18200001
4.0,0.48089999,-0.2307,0.61390001,0.58169997,-0.116,0.06500001,-0.17
4.0,0.4804,-0.227,0.6146,0.58279997,-0.13100001,0.064,-0.162
4.0,0.47979999,-0.22319999,0.6153,0.58410001,-0.149,0.06,-0.15300001
4.0,0.47889999,-0.2191,0.61610001,0.58559996,-0.16100001,0.052,-0.15000001
4.0,0.4777,-0.2148,0.61689997,0.58719999,-0.18000001,0.047,-0.148
4.0,0.47639999,-0.2103,0.61769998,0.5891,-0.192,0.041,-0.149
4.0,0.47489998,-0.2057,0.61849999,0.59119999,-0.2,0.037,-0.15100001
4.0,0.47319999,-0.20109999,0.61909997,0.5934,-0.19800001,0.042,-0.15200001
4.0,0.47139999,-0.1964,0.61969995,0.59579998,-0.20600002,0.055,-0.15000001
4.0,0.46939999,-0.1919,0.62009996,0.5984,-0.20400001,0.075,-0.142
4.0,0.4673,-0.1875,0.62029999,0.60119998,-0.20700002,0.086,-0.12800001
4.0,0.46539998,-0.18339999,0.62029999,0.60409999,-0.20700002,0.093,-0.10200001
4.0,0.46349999,-0.1797,0.62,0.60689998,-0.21400002,0.109,-0.066
4.0,0.4614,-0.17639999,0.6196,0.60979998,-0.21300001,0.12900001,-0.036
4.0,0.45909998,-0.1734,0.61909997,0.61289996,-0.19900002,0.141,-0.001
4.0,0.45629999,-0.1708,0.61869997,0.61610001,-0.18100001,0.126,0.027
4.0,0.4533,-0.16859999,0.6182,0.61939996,-0.16800001,0.09500001,0.059
4.0,0.45009997,-0.16689999,0.6178,0.62259996,-0.164,0.049,0.096
4.0,0.44669998,-0.1654,0.61759996,0.6257,-0.171,0.01,0.126
4.0,0.44299999,-0.1639,0.61759996,0.62879997,-0.18800001,-0.007,0.14600001
4.0,0.43879998,-0.1619,0.61790001,0.63190001,-0.21000001,-0.018,0.15800001
4.0,0.43379998,-0.15889999,0.61869997,0.63529998,-0.21800001,-0.016,0.163
4.0,0.4278,-0.1548,0.61989999,0.63909996,-0.215,0.002,0.15900001
4.0,0.42039999,-0.14929999,0.62189996,0.64349997,-0.18900001,0.054,0.13800001
4.0,0.41159999,-0.1425,0.6243,0.64829999,-0.155,0.1,0.10700001
4.0,0.40179998,-0.1348,0.62689996,0.65359998,-0.11300001,0.14300001,0.074
4.0,0.391,-0.1265,0.62939996,0.65939999,-0.061,0.177,0.044
4.0,0.37959999,-0.118,0.63190001,0.6652,-0.013,0.19700001,0.017
4.0,0.368,-0.1096,0.63409996,0.67109996,0.031,0.21100001,-0.013
4.0,0.35639998,-0.1017,0.6358,0.67689997,0.068,0.21900001,-0.041
4.0,0.3448,-0.09429999,0.6372,0.68269998,0.096,0.208,-0.059
4.0,0.3335,-0.0875,0.63819999,0.6882,0.123,0.18000001,-0.068
4.0,0.32229999,-0.0812,0.63919997,0.69339997,0.14,0.15000001,-0.067
4.0,0.3114,-0.0751,0.63999999,0.6983,0.148,0.11700001,-0.061
4.0,0.30069998,-0.0691,0.64089996,0.70279998,0.14400001,0.079,-0.05
4.0,0.28999999,-0.0631,0.64160001,0.70709997,0.133,0.045,-0.041
4.0,0.27950001,-0.0569,0.64230001,0.71129996,0.119,0.012,-0.036
4.0,0.26909998,-0.0503,0.64289999,0.71520001,0.104,-0.025,-0.024
4.0,0.2588,-0.0434,0.64340001,0.71899998,0.1,-0.056,-0.018
4.0,0.24839999,-0.036,0.64389998,0.7227,0.1,-0.09,-0.022
4.0,0.23819999,-0.0283,0.64429998,0.72600001,0.11100001,-0.12100001,-0.023
4.0,0.22829999,-0.0202,0.64469999,0.72909999,0.134,-0.13900001,-0.019
4.0,0.21869999,-0.0118,0.64499998,0.73199999,0.15000001,-0.149,-0.019
4.0,0.2095,-0.003,0.64499998,0.73469996,0.14500001,-0.16100001,-0.01
4.0,0.20089999,0.0056,0.64480001,0.7374,0.12900001,-0.17400001,0.001
4.0,0.19309999,0.014,0.64419997,0.73979998,0.11000001,-0.18000001,0.013
4.0,0.18599999,0.0221,0.64349997,0.7421,0.094,-0.17300001,0.018
4.0,0.1795,0.0301,0.6426,0.74419999,0.067,-0.15100001,0.015
4.0,0.1732,0.0383,0.64160001,0.74619997,0.011,-0.11700001,0.018
4.0,0.1672,0.0467,0.64029998,0.74809998,-0.046,-0.089,0.028
4.0,0.1612,0.055,0.63889998,0.75009996,-0.09200001,-0.06900001,0.036
4.0,0.15529999,0.0632,0.63729995,0.75199997,-0.119,-0.046,0.046
4.0,0.1495,0.0714,0.63559997,0.75400001,-0.126,-0.02,0.042
4.0,0.1436,0.0797,0.6336,0.75589997,-0.132,0.006,0.023
4.0,0.1374,0.0882,0.63150001,0.7579,-0.15100001,0.045,0.001
4.0,0.1309,0.0964,0.62919998,0.75989997,-0.17900001,0.071,-0.014
4.0,0.12419999,0.1045,0.62669998,0.76199996,-0.20600002,0.09,-0.024
4.0,0.117,0.11229999,0.62409997,0.76419997,-0.23,0.10200001,-0.035
4.0,0.1093,0.12,0.6214,0.76639998,-0.24300002,0.10700001,-0.045
4.0,0.101,0.1278,0.61849999,0.76859999,-0.24700001,0.105,-0.059
4.0,0.09209999,0.1358,0.61570001,0.77059996,-0.24700001,0.09500001,-0.07600001
4.0,0.0828,0.1437,0.61289996,0.77239996,-0.24100001,0.07700001,-0.097
4.0,0.0731,0.1516,0.61019999,0.77410001,-0.22000001,0.058,-0.12100001
4.0,0.0632,0.1592,0.60749996,0.7755,-0.19600001,0.04,-0.142
4.0,0.0531,0.16679999,0.6049,0.77669996,-0.177,0.028,-0.156
4.0,0.043,0.17399999,0.60229999,0.77779996,-0.16000001,0.021,-0.171
4.0,0.0329,0.1811,0.59979999,0.77859998,-0.155,0.019,-0.18200001
4.0,0.0229,0.18799999,0.59719998,0.77929997,-0.15000001,0.015,-0.19500001
4.0,0.013,0.1946,0.5948,0.7798,-0.15300001,0.004,-0.20600002
4.0,0.0033,0.20119999,0.59240001,0.77999997,-0.148,-0.009,-0.21300001
4.0,-0.0062,0.2077,0.59020001,0.77999997,-0.134,-0.021,-0.22000001
4.0,-0.0157,0.21409999,0.58809996,0.77959996,-0.11100001,-0.028,-0.22400001
4.0,-0.0252,0.22029999,0.5862,0.7791,-0.089,-0.025,-0.22400001
4.0,-0.0346,0.2263,0.5844,0.7784,-0.06900001,-0.016,-0.215
4.0,-0.0439,0.23189999,0.58270001,0.77749997,-0.056,-0.001,-0.20100001
4.0,-0.053,0.23729999,0.58109999,0.77649999,-0.049,0.012,-0.18800001
4.0,-0.062,0.24239999,0.57959998,0.77539998,-0.046,0.021,-0.17200001
4.0,-0.0709,0.2474,0.57809997,0.77419996,-0.04,0.023,-0.16100001
4.0,-0.08,0.25229999,0.57660002,0.77289999,-0.027,0.017,-0.156
4.0,-0.0892,0.25729999,0.5751,0.77129996,-0.004,0.001,-0.15400001
4.0,-0.0986,0.2622,0.57359999,0.76959997,0.023,-0.009,-0.15100001
4.0,-0.108,0.2669,0.57239997,0.76769996,0.043,-0.013,-0.147
4.0,-0.11719999,0.27129999,0.57129997,0.76550001,0.053,-0.016,-0.13900001
4.0,-0.1261,0.2753,0.57059997,0.76319999,0.061,-0.014,-0.12800001
4.0,-0.1347,0.2791,0.57010001,0.7608,0.071,-0.008,-0.11800001
4.0,-0.1426,0.2827,0.5697,0.75830001,0.08800001,-0.005,-0.105
4.0,-0.15009999,0.2863,0.56940001,0.75569999,0.104,-0.003,-0.09
4.0,-0.15709999,0.28999999,0.56909996,0.75309998,0.11700001,0.006,-0.07
4.0,-0.16339999,0.29369998,0.56889999,0.75049996,0.126,0.027,-0.053
4.0,-0.1691,0.29749998,0.56879997,0.74779999,0.13500001,0.048,-0.035
4.0,-0.1742,0.3012,0.56879997,0.74509996,0.13900001,0.083,-0.017
4.0,-0.1786,0.30489999,0.56900001,0.74239999,0.132,0.12200001,-0.007
4.0,-0.18259999,0.30849999,0.56940001,0.73969996,0.12,0.15000001,-0.003
4.0,-0.18609999,0.3123,0.5697,0.73699999,0.09900001,0.16800001,0.0
4.0,-0.1892,0.3161,0.57010001,0.7342,0.081,0.17900001,0.0
4.0,-0.19229999,0.32029998,0.5704,0.7313,0.061,0.18800001,-0.007
4.0,-0.1953,0.3249,0.57049996,0.72839999,0.028,0.18900001,-0.028
4.0,-0.19839999,0.3301,0.57029998,0.72539997,0.001,0.16000001,-0.048
4.0,-0.2015,0.33559999,0.56979996,0.72249997,-0.032,0.11400001,-0.057
4.0,-0.20469999,0.34169999,0.56889999,0.71939999,-0.053,0.049,-0.063
4.0,-0.20799999,0.34829998,0.56779999,0.71619999,-0.067,0.004,-0.067
4.0,-0.2113,0.3554,0.56629997,0.71289998,-0.078,-0.039,-0.06900001
4.0,-0.2147,0.36319998,0.5643,0.70949996,-0.096,-0.07700001,-0.061
4.0,-0.21789999,0.37149999,0.5618,0.7062,-0.109,-0.094,-0.054
4.0,-0.22119999,0.3802,0.5589,0.70279998,-0.12400001,-0.101,-0.053
4.0,-0.2245,0.38939998,0.55549997,0.69940001,-0.13800001,-0.085,-0.057
4.0,-0.22809999,0.39909998,0.55159998,0.69589996,-0.148,-0.057,-0.072
4.0,-0.23189999,0.40899998,0.54710001,0.69239998,-0.16600001,-0.004,-0.096
4.0,-0.23609999,0.419,0.54210001,0.68889999,-0.17,0.055,-0.12
4.0,-0.24069999,0.4289,0.53670001,0.68540001,-0.178,0.10700001,-0.141
4.0,-0.24569999,0.4384,0.53109998,0.68199998,-0.16600001,0.149,-0.164
4.0,-0.2511,0.44749999,0.52539998,0.67859995,-0.162,0.177,-0.177
4.0,-0.2568,0.45619997,0.51969999,0.67509997,-0.14600001,0.186,-0.18100001
4.0,-0.2626,0.46399999,0.51419997,0.6717,-0.13100001,0.193,-0.17900001
4.0,-0.26839998,0.47119999,0.50889999,0.66839999,-0.115,0.192,-0.17400001
4.0,-0.27419999,0.47779998,0.50379997,0.6652,-0.115,0.18000001,-0.17
4.0,-0.2798,0.48379999,0.49899998,0.66209996,-0.12200001,0.15700001,-0.17
4.0,-0.28549999,0.4894,0.49439999,0.6591,-0.149,0.13600001,-0.16100001
4.0,-0.2913,0.49489999,0.48959997,0.65599996,-0.164,0.11000001,-0.15900001
4.0,-0.29719999,0.50040001,0.48479998,0.65279996,-0.163,0.079,-0.15900001
4.0,-0.30320001,0.50589997,0.4797,0.64950001,-0.156,0.058,-0.156
4.0,-0.30939999,0.5115,0.4743,0.64609998,-0.148,0.04,-0.156
4.0,-0.31569999,0.51699996,0.46869999,0.64279997,-0.13600001,0.025,-0.155
4.0,-0.32189998,0.52249998,0.4628,0.63949996,-0.12400001,0.02,-0.15700001
4.0,-0.32799998,0.52779996,0.45679998,0.63639998,-0.11000001,0.02,-0.16000001
4.0,-0.33399999,0.53259999,0.4506,0.6336,-0.10300001,0.027,-0.162
4.0,-0.33989999,0.53709996,0.44439998,0.6311,-0.101,0.034,-0.164
4.0,-0.3457,0.54119998,0.43809998,0.62889999,-0.10700001,0.044,-0.16500001
4.0,-0.3515,0.54499996,0.43159997,0.62689996,-0.101,0.052,-0.164
4.0,-0.3572,0.54839998,0.4251,0.62509996,-0.104,0.061,-0.16000001
4.0,-0.36300001,0.55140001,0.41859999,0.62349999,-0.108,0.082,-0.155
4.0,-0.3689,0.55409998,0.412,0.62199998,-0.112,0.093,-0.15700001
4.0,-0.3748,0.55649996,0.40549999,0.6207,-0.11300001,0.098,-0.156
4.0,-0.38079998,0.55860001,0.3989,0.61939996,-0.11400001,0.101,-0.15300001
4.0,-0.38679999,0.56029999,0.3924,0.61829996,-0.11100001,0.101,-0.15000001
4.0,-0.39289999,0.5618,0.38599998,0.61719996,-0.108,0.096,-0.15400001
4.0,-0.39909998,0.56299996,0.37959999,0.61610001,-0.11000001,0.089,-0.155
4.0,-0.40529999,0.56389999,0.3732,0.61500001,-0.11300001,0.08000001,-0.15700001
4.0,-0.41159999,0.56459999,0.36699998,0.61399996,-0.11300001,0.078,-0.16100001
4.0,-0.41779998,0.56510001,0.3608,0.61299998,-0.11700001,0.08400001,-0.171
4.0,-0.4242,0.5654,0.35459998,0.61199999,-0.11800001,0.085,-0.17900001
4.0,-0.4305,0.5654,0.3486,0.611,-0.109,0.081,-0.185
4.0,-0.43669999,0.56519997,0.34279999,0.61009997,-0.096,0.071,-0.19000001
4.0,-0.4427,0.56470001,0.3373,0.6092,-0.08400001,0.061,-0.192
4.0,-0.44849998,0.56379998,0.33219999,0.60859996,-0.075,0.048,-0.19400001
4.0,-0.454,0.56259996,0.32749999,0.60820001,-0.072,0.045,-0.19500001
4.0,-0.4594,0.56089997,0.3231,0.6081,-0.071,0.047,-0.2
4.0,-0.46449998,0.5589,0.31909999,0.6081,-0.07600001,0.051,-0.20700002
4.0,-0.46949998,0.55659997,0.31549999,0.60829997,-0.083,0.05,-0.21000001
4.0,-0.4743,0.55399996,0.31219998,0.60859996,-0.09,0.049,-0.21300001
4.0,-0.479,0.55129999,0.30919999,0.60890001,-0.096,0.049,-0.21800001
4.0,-0.48359999,0.5485,0.3064,0.6092,-0.101,0.051,-0.22000001
4.0,-0.48819998,0.54570001,0.3039,0.60929996,-0.09900001,0.055,-0.22100002
4.0,-0.4928,0.54289997,0.30149999,0.60929996,-0.098,0.06,-0.21900001
4.0,-0.49739999,0.53999996,0.29929999,0.6092,-0.089,0.06900001,-0.21700001
4.0,-0.50199997,0.53719997,0.2974,0.60899997,-0.083,0.08400001,-0.21300001
4.0,-0.50650001,0.53420001,0.29569998,0.60869998,-0.07700001,0.097,-0.215
4.0,-0.51089996,0.53119999,0.29429999,0.60829997,-0.066,0.10600001,-0.21300001
4.0,-0.5151,0.52819997,0.29319999,0.60789996,-0.053,0.123,-0.21200001
4.0,-0.51899999,0.52509999,0.29269999,0.6074,-0.042,0.13600001,-0.208
4.0,-0.52270001,0.52209997,0.29249999,0.60699999,-0.038,0.148,-0.19500001
4.0,-0.52599996,0.51919997,0.29260001,0.60659999,-0.039,0.16600001,-0.18000001
4.0,-0.52899998,0.5165,0.2929,0.60609996,-0.045,0.17,-0.16600001
4.0,-0.53170002,0.51419997,0.2933,0.6056,-0.051,0.17,-0.14500001
4.0,-0.5341,0.5122,0.29369998,0.60499996,-0.053,0.16800001,-0.13000001
4.0,-0.5363,0.51059997,0.29409999,0.60420001,-0.047,0.16700001,-0.11800001
4.0,-0.53819996,0.50949997,0.29440001,0.60319996,-0.034,0.15900001,-0.104
4.0,-0.5399,0.50889999,0.29479998,0.602,-0.022,0.13800001,-0.086
4.0,-0.54140002,0.50879997,0.29530001,0.60049999,-0.013,0.115,-0.06500001
4.0,-0.54259998,0.50909996,0.296,0.59869999,-0.007,0.086,-0.039
4.0,-0.54369998,0.50989997,0.2969,0.59679997,-0.004,0.057,-0.017
4.0,-0.54469997,0.51089996,0.29769999,0.59450001,0.0,0.021,0.002
4.0,-0.5456,0.51230001,0.2985,0.59209996,0.002,-0.013,0.025
4.0,-0.54659998,0.51379997,0.29909998,0.58950001,0.013,-0.044,0.047
4.0,-0.54769999,0.51569998,0.29949999,0.58660001,0.025,-0.071,0.05
4.0,-0.5492,0.51789999,0.2994,0.58340001,0.032,-0.10600001,0.038
4.0,-0.55110002,0.5201,0.29889998,0.57989997,0.042,-0.13600001,0.026
4.0,-0.55320001,0.52239996,0.29799998,0.57620001,0.058,-0.171,0.011
4.0,-0.5557,0.52459997,0.29679999,0.57249999,0.074,-0.2,-0.005
4.0,-0.55839998,0.52649999,0.29549998,0.56879997,0.09200001,-0.22100002,-0.023
4.0,-0.56129998,0.52810001,0.29409999,0.56510001,0.11300001,-0.22600001,-0.043
4.0,-0.56419998,0.52929997,0.29279998,0.56169999,0.142,-0.22800002,-0.057
4.0,-0.56720001,0.53029996,0.29139999,0.55860001,0.177,-0.22200002,-0.057
4.0,-0.56979996,0.53109998,0.29029998,0.5557,0.20900001,-0.20500001,-0.06900001
4.0,-0.5722,0.53200001,0.28939998,0.5528,0.21600001,-0.17300001,-0.089
4.0,-0.57440001,0.53289998,0.2888,0.55000001,0.20600002,-0.13600001,-0.09
4.0,-0.5765,0.53380001,0.28819999,0.54729998,0.186,-0.09500001,-0.07
4.0,-0.57849997,0.53479999,0.28759998,0.54449999,0.16600001,-0.059,-0.048
4.0,-0.58069998,0.53579998,0.287,0.54149997,0.15100001,-0.029,-0.033
4.0,-0.58289999,0.53679997,0.28650001,0.53829998,0.13500001,-0.001,-0.022
4.0,-0.58520001,0.53780001,0.28619999,0.53499997,0.13000001,0.001,-0.015
4.0,-0.58739996,0.5388,0.2861,0.5316,0.13500001,-0.003,-0.01
4.0,-0.58950001,0.53979999,0.28619999,0.52819997,0.13900001,-0.014,-0.011
4.0,-0.59149998,0.54079998,0.2863,0.52489996,0.141,-0.029,-0.012
4.0,-0.59329998,0.54179996,0.28639999,0.52169997,0.147,-0.048,-0.015
4.0,-0.5948,0.54280001,0.28669998,0.51879996,0.15300001,-0.075,-0.016
4.0,-0.59609997,0.54359996,0.28729999,0.51620001,0.15400001,-0.096,-0.01
4.0,-0.597,0.54429996,0.28799999,0.514,0.16000001,-0.12,0.0
4.0,-0.59759998,0.5449,0.28909999,0.51199996,0.16500001,-0.13900001,0.004
4.0,-0.59799999,0.54549998,0.2904,0.51019996,0.15700001,-0.148,0.004
4.0,-0.59819996,0.54619998,0.29159999,0.50849998,0.132,-0.15300001,0.005
4.0,-0.59829998,0.54699999,0.2929,0.50690001,0.101,-0.15200001,0.015
4.0,-0.5984,0.54789996,0.294,0.50519997,0.072,-0.142,0.028
4.0,-0.59850001,0.54879999,0.29499999,0.50339997,0.041,-0.12400001,0.041
4.0,-0.59859997,0.54979998,0.296,0.50159997,0.027,-0.11100001,0.049
4.0,-0.5988,0.55079997,0.29679999,0.49969998,0.017,-0.09900001,0.055
4.0,-0.59920001,0.55189997,0.29749998,0.49769998,0.012,-0.085,0.06
4.0,-0.59959996,0.55309999,0.29809999,0.49559999,0.009,-0.07300001,0.06500001
4.0,-0.60009998,0.55419999,0.29859999,0.49339998,0.003,-0.062,0.071
4.0,-0.60079998,0.5553,0.29899999,0.491,0.0,-0.061,0.079
4.0,-0.60149997,0.5564,0.2994,0.48859999,-0.005,-0.071,0.08400001
4.0,-0.60229999,0.5575,0.29969999,0.48619998,-0.007,-0.08800001,0.085
4.0,-0.60319996,0.55849999,0.3001,0.48359999,-0.006,-0.10700001,0.082
4.0,-0.60420001,0.5596,0.30050001,0.48099998,-0.014,-0.123,0.082
4.0,-0.60519999,0.56049997,0.301,0.47829998,-0.022,-0.13900001,0.08400001
4.0,-0.60619998,0.56150001,0.30159998,0.47549999,-0.025,-0.142,0.087
4.0,-0.60729998,0.56239998,0.30219999,0.4727,-0.022,-0.13700001,0.082
4.0,-0.60829997,0.5632,0.30289999,0.47,-0.022,-0.125,0.079
4.0,-0.60939997,0.56369996,0.3037,0.46739998,-0.024,-0.108,0.079
4.0,-0.61049998,0.56409997,0.3046,0.46489999,-0.013,-0.10300001,0.078
4.0,-0.61149997,0.56419998,0.30579999,0.46259999,-0.013,-0.094,0.072
4.0,-0.61259997,0.56409997,0.3073,0.4603,-0.007,-0.09200001,0.061
4.0,-0.61359996,0.56389999,0.3089,0.45809999,-0.004,-0.089,0.051
4.0,-0.6146,0.56349999,0.3109,0.45589998,-0.016,-0.079,0.048
4.0,-0.61559999,0.56299996,0.31309998,0.45359999,-0.031,-0.067,0.049
4.0,-0.61659998,0.56239998,0.31549999,0.45139998,-0.037,-0.06500001,0.052
4.0,-0.61769998,0.56169999,0.31799999,0.44909999,-0.048,-0.063,0.058
4.0,-0.61869997,0.56089997,0.32069999,0.44669998,-0.049,-0.064,0.066
4.0,-0.6196,0.56009996,0.32349998,0.44439998,-0.049,-0.058,0.071
4.0,-0.62049997,0.55939996,0.32639998,0.44189999,-0.05,-0.05,0.078
4.0,-0.6214,0.55869997,0.32929999,0.43939999,-0.056,-0.04,0.082
4.0,-0.6221,0.55809999,0.33219999,0.43689999,-0.066,-0.036,0.087
4.0,-0.62279999,0.55769998,0.3351,0.43429998,-0.072,-0.041,0.09500001
4.0,-0.62339997,0.55739999,0.33809999,0.43159997,-0.081,-0.047,0.104
4.0,-0.62379998,0.55739999,0.3409,0.4287,-0.089,-0.063,0.10600001
4.0,-0.6243,0.55759996,0.3436,0.42559999,-0.09500001,-0.071,0.108
4.0,-0.62459999,0.55799997,0.34619999,0.4224,-0.09500001,-0.074,0.11100001
4.0,-0.625,0.55879998,0.3486,0.41889998,-0.1,-0.066,0.116
4.0,-0.62529999,0.55970001,0.35089999,0.4152,-0.09200001,-0.055,0.11800001
4.0,-0.62559998,0.56079996,0.3531,0.41139999,-0.085,-0.038,0.11700001
4.0,-0.62580001,0.56220001,0.35519999,0.4075,-0.06900001,-0.018,0.11100001
4.0,-0.62599999,0.5636,0.35709998,0.40349999,-0.057,0.007,0.10300001
4.0,-0.6261,0.56519997,0.359,0.3994,-0.047,0.048,0.08400001
4.0,-0.62629998,0.5668,0.36069998,0.3953,-0.042,0.10200001,0.057
4.0,-0.62650001,0.56839997,0.36229998,0.39109999,-0.037,0.155,0.028
4.0,-0.62689996,0.56999999,0.36389998,0.3867,-0.034,0.21900001,-0.007
4.0,-0.62739998,0.57159996,0.3653,0.38209999,-0.027,0.266,-0.042
4.0,-0.62799996,0.5733,0.36659998,0.37719998,-0.011,0.28600001,-0.07600001
4.0,-0.62879997,0.57499999,0.3678,0.37219998,0.011,0.266,-0.12400001
4.0,-0.62949997,0.57669997,0.36899999,0.36719999,0.042,0.21400002,-0.15800001
4.0,-0.63010001,0.57849997,0.37009999,0.36210001,0.082,0.14300001,-0.18900001
4.0,-0.63019997,0.58050001,0.3716,0.35729998,0.133,0.051,-0.19900002
4.0,-0.62989998,0.5826,0.37309998,0.3527,0.17200001,-0.027,-0.23800001
4.0,-0.62939996,0.58459997,0.37469998,0.3486,0.19800001,-0.089,-0.25
4.0,-0.6286,0.58649999,0.37629998,0.34509999,0.215,-0.14300001,-0.26900002
4.0,-0.62769997,0.58819997,0.3777,0.34219998,0.21600001,-0.18000001,-0.289
4.0,-0.62659997,0.58999997,0.37899998,0.33969998,0.20100001,-0.17500001,-0.287
4.0,-0.62540001,0.59179997,0.38009998,0.33759999,0.18100001,-0.141,-0.29100001
4.0,-0.62419999,0.59359998,0.3811,0.33559999,0.16700001,-0.09500001,-0.28
4.0,-0.62269998,0.59560001,0.382,0.33379999,0.16000001,-0.048,-0.266
4.0,-0.62110001,0.59749997,0.3829,0.33229998,0.16000001,-0.016,-0.252
4.0,-0.61939996,0.5995,0.38369998,0.331,0.15800001,-0.01,-0.23900001
4.0,-0.61729997,0.60170001,0.38439998,0.32999998,0.15400001,-0.019,-0.22600001
4.0,-0.61509997,0.60399997,0.38509998,0.32909998,0.14400001,-0.035,-0.21000001
4.0,-0.61269999,0.60640001,0.3858,0.32839999,0.127,-0.052,-0.19000001
4.0,-0.6103,0.60859996,0.38659999,0.32780001,0.097,-0.082,-0.17600001
4.0,-0.60780001,0.61070001,0.38749999,0.32729998,0.062,-0.109,-0.162
4.0,-0.60539997,0.61269999,0.38859999,0.32690001,0.024,-0.125,-0.14600001
4.0,-0.60319996,0.6146,0.3897,0.32619998,-0.012,-0.126,-0.13000001
4.0,-0.6013,0.61649996,0.39049998,0.3251,-0.04,-0.125,-0.126
4.0,-0.59979999,0.61839998,0.391,0.3238,-0.063,-0.126,-0.132
4.0,-0.59850001,0.62019998,0.39139998,0.3222,-0.07700001,-0.125,-0.14
4.0,-0.59729999,0.62199998,0.39179999,0.32029998,-0.074,-0.123,-0.147
4.0,-0.59649998,0.62369996,0.39209998,0.31829998,-0.061,-0.126,-0.15900001
4.0,-0.59579998,0.62509996,0.3926,0.31619999,-0.028,-0.13900001,-0.18800001
4.0,-0.59499997,0.62629998,0.3933,0.31439999,0.011,-0.15200001,-0.21400002
4.0,-0.59389997,0.62720001,0.3946,0.31299999,0.064,-0.15300001,-0.23300001
4.0,-0.5923,0.6279,0.39649999,0.31239998,0.10200001,-0.13900001,-0.23100001
4.0,-0.59029996,0.62830001,0.39879999,0.3125,0.12200001,-0.115,-0.21800001
4.0,-0.58770001,0.62830001,0.40179998,0.31329998,0.11000001,-0.085,-0.19700001
4.0,-0.58489996,0.62799996,0.40529999,0.31479999,0.083,-0.059,-0.185
4.0,-0.58169997,0.6275,0.40919998,0.31649998,0.049,-0.04,-0.18200001
4.0,-0.57849997,0.62689996,0.41329998,0.3184,0.011,-0.011,-0.18000001
4.0,-0.57529998,0.62619996,0.41729999,0.32029998,-0.005,0.01,-0.18100001
4.0,-0.57209998,0.6257,0.421,0.3222,-0.01,0.028,-0.17900001
4.0,-0.56919998,0.62549996,0.42399999,0.32389998,-0.01,0.04,-0.15900001
4.0,-0.56650001,0.62559998,0.42639998,0.32519999,-0.002,0.041,-0.142
4.0,-0.56389999,0.62599999,0.42829999,0.32639998,0.011,0.032,-0.134
4.0,-0.56159997,0.62659997,0.42969999,0.32729998,0.023,0.021,-0.12800001
4.0,-0.55930001,0.6275,0.43089998,0.32799998,0.019,0.01,-0.12800001
4.0,-0.5571,0.6286,0.43179998,0.3285,-0.001,-0.004,-0.12400001
4.0,-0.55509996,0.62979996,0.43239999,0.32879999,-0.026,-0.023,-0.11300001
4.0,-0.55309999,0.63119996,0.43269998,0.329,-0.039,-0.041,-0.108
4.0,-0.55119997,0.63269997,0.43279999,0.32929999,-0.042,-0.052,-0.11000001
4.0,-0.5492,0.63429999,0.43269998,0.32949999,-0.033,-0.048,-0.112
4.0,-0.54710001,0.63620001,0.43259999,0.32960001,-0.019,-0.031,-0.123
4.0,-0.54509997,0.63789999,0.43249997,0.32960001,-0.007,0.006,-0.14300001
4.0,-0.5431,0.6397,0.43249997,0.32949999,-0.004,0.039,-0.156
4.0,-0.5413,0.64129996,0.43239999,0.32949999,-0.014,0.061,-0.15700001
4.0,-0.53960001,0.64269996,0.43239999,0.32949999,-0.034,0.07,-0.149
4.0,-0.5381,0.64379996,0.43259999,0.32969999,-0.046,0.064,-0.141
4.0,-0.53659999,0.64459997,0.433,0.32999998,-0.046,0.051,-0.134
4.0,-0.53499997,0.6451,0.4337,0.33059999,-0.031,0.031,-0.13100001
4.0,-0.5334,0.64529997,0.43489999,0.33129999,-0.011,0.023,-0.132
4.0,-0.5316,0.64529997,0.4364,0.33229998,0.01,0.025,-0.13500001
4.0,-0.52959996,0.64499998,0.4382,0.3335,0.025,0.038,-0.134
4.0,-0.52739996,0.64449996,0.44039997,0.3351,0.036,0.051,-0.125
4.0,-0.52499998,0.64389998,0.4427,0.33699998,0.042,0.068,-0.115
4.0,-0.52239996,0.64300001,0.44529998,0.33929998,0.039,0.082,-0.104
4.0,-0.51959997,0.64209998,0.44799998,0.3418,0.032,0.081,-0.094
4.0,-0.51660001,0.64099997,0.45089999,0.34450001,0.028,0.071,-0.082
4.0,-0.51349998,0.63989997,0.45389998,0.34739998,0.02,0.059,-0.071
4.0,-0.51029998,0.63879997,0.4569,0.35029998,0.017,0.039,-0.061
4.0,-0.5072,0.6376,0.45969999,0.3531,0.018,0.029,-0.051
4.0,-0.50419998,0.63639998,0.46249998,0.35589999,0.013,0.033,-0.052
4.0,-0.50129998,0.63519996,0.46519998,0.35859999,0.02,0.039,-0.059
4.0,-0.49829999,0.63419998,0.46759999,0.36129999,0.044,0.056,-0.063
4.0,-0.49529999,0.63330001,0.47,0.36399999,0.06,0.08000001,-0.071
4.0,-0.49229997,0.63249999,0.47219998,0.36669999,0.074,0.12200001,-0.085
4.0,-0.4892,0.63169998,0.47419998,0.36939999,0.081,0.164,-0.09
4.0,-0.48629999,0.6311,0.47599998,0.37219998,0.093,0.15200001,-0.064
4.0,-0.48349997,0.6304,0.47749999,0.37509999,0.108,0.109,-0.022
4.0,-0.48049998,0.62939996,0.47909999,0.37849998,0.134,0.08000001,0.009
4.0,-0.47729999,0.62799996,0.48089999,0.38249999,0.17,0.075,0.038
4.0,-0.47389999,0.62669998,0.4824,0.38699999,0.21900001,0.074,0.057
4.0,-0.47039998,0.62549996,0.48359999,0.3917,0.23,0.06,0.03
4.0,-0.46669999,0.62449998,0.48469999,0.39629999,0.19400001,0.049,-0.004
4.0,-0.463,0.62349999,0.4858,0.40089998,0.126,0.038,-0.032
4.0,-0.45919999,0.62239999,0.48709998,0.40539998,0.07,0.037,-0.03
4.0,-0.45559999,0.62110001,0.48859999,0.40969998,0.029,0.04,-0.03
4.0,-0.4522,0.61979997,0.4901,0.41349998,0.003,0.057,-0.027
4.0,-0.44929999,0.61860001,0.49139997,0.41689998,-0.01,0.079,-0.002
4.0,-0.44689998,0.61739999,0.49239999,0.41999999,-0.003,0.09,0.047
4.0,-0.44479999,0.61619997,0.49289998,0.42339998,0.047,0.093,0.096
4.0,-0.44279999,0.61509997,0.493,0.42699999,0.12200001,0.09200001,0.11000001
4.0,-0.44039997,0.61409998,0.493,0.43099999,0.21300001,0.094,0.081
4.0,-0.43739998,0.61269999,0.49309999,0.4357,0.287,0.07300001,0.004
4.0,-0.43379998,0.61159998,0.4937,0.4402,0.32300001,0.034,-0.039
4.0,-0.4298,0.61089998,0.49439999,0.4443,0.30100003,0.012,-0.09900001
4.0,-0.4262,0.61059999,0.4948,0.44779998,0.21800001,0.019,-0.09200001
4.0,-0.42299998,0.6103,0.49469998,0.45139998,0.116,0.022,-0.017
4.0,-0.4199,0.6099,0.49429998,0.45519999,0.066,0.0,0.068
4.0,-0.41669998,0.60929996,0.4939,0.45929998,0.109,-0.025,0.097
4.0,-0.4136,0.60890001,0.49339998,0.46329999,0.16800001,-0.047,0.071
4.0,-0.4109,0.6092,0.49219999,0.46649998,0.149,-0.021,0.011
4.0,-0.40869999,0.6099,0.49059999,0.46919999,0.07,0.047,-0.007
4.0,-0.4068,0.61070001,0.4887,0.4718,-0.008,0.12100001,0.013
4.0,-0.40509999,0.61119998,0.48679999,0.47459999,-0.05,0.16600001,0.051
4.0,-0.40369999,0.61149997,0.4851,0.47709998,-0.066,0.177,0.062
4.0,-0.40269998,0.61189997,0.4833,0.47909999,-0.083,0.17500001,0.042
4.0,-0.40239999,0.61259997,0.48159999,0.48029998,-0.11300001,0.162,0.02
4.0,-0.4023,0.61329997,0.48009998,0.48099998,-0.127,0.15200001,0.02
4.0,-0.40239999,0.61369997,0.4788,0.48159999,-0.115,0.141,0.035
4.0,-0.4025,0.61359996,0.47799999,0.4824,-0.09,0.12800001,0.043
4.0,-0.40259999,0.61309999,0.47759998,0.48339999,-0.06500001,0.126,0.039
4.0,-0.40279999,0.6124,0.47739998,0.48439997,-0.046,0.12800001,0.019
4.0,-0.40289998,0.61149997,0.47739998,0.48549998,-0.027,0.133,-0.006
4.0,-0.40279999,0.61039996,0.47749999,0.48679999,0.001,0.12800001,-0.031
4.0,-0.40239999,0.6092,0.4779,0.4883,0.027,0.10200001,-0.085
4.0,-0.40189999,0.60780001,0.47849998,0.48979998,0.04,0.06500001,-0.011
4.0,-0.4014,0.60649997,0.47909999,0.4912,0.061,0.066,-0.023
4.0,-0.40099999,0.60499996,0.4797,0.49289998,0.058,0.074,0.003
4.0,-0.40059999,0.60319996,0.48009998,0.49489999,0.035,0.07600001,0.037
4.0,-0.40039998,0.60119998,0.48049998,0.49719998,0.026,0.062,0.068
4.0,-0.40039998,0.59920001,0.4806,0.49939999,0.03,0.041,0.075
4.0,-0.40099999,0.59749997,0.4804,0.50129998,0.016,0.044,0.07300001
4.0,-0.40189999,0.59609997,0.47979999,0.50279999,-0.003,0.062,0.06
4.0,-0.40309998,0.5948,0.479,0.50409997,-0.013,0.072,0.031
4.0,-0.4043,0.59380001,0.4781,0.50510001,-0.022,0.074,0.002
4.0,-0.40579998,0.59299999,0.47709998,0.50580001,-0.05,0.089,-0.027
4.0,-0.4077,0.59249997,0.47589999,0.50589997,-0.082,0.112,-0.036
4.0,-0.40959999,0.59209996,0.47469997,0.50599998,-0.089,0.13000001,-0.027
4.0,-0.41149998,0.5916,0.4736,0.5061,-0.06900001,0.12800001,-0.021
4.0,-0.41319999,0.59099996,0.4727,0.50639999,-0.032,0.11400001,-0.036
4.0,-0.4145,0.59029996,0.47209999,0.50659996,0.014,0.10700001,-0.06500001
4.0,-0.41549999,0.58969998,0.47169998,0.5068,0.054,0.116,-0.1
4.0,-0.4163,0.5891,0.47149998,0.50709999,0.058,0.132,-0.105
4.0,-0.41709998,0.58809996,0.4716,0.50749999,0.021,0.15300001,-0.075
4.0,-0.41779998,0.58629996,0.47209999,0.5086,-0.014,0.14500001,-0.031
4.0,-0.41849998,0.58359998,0.47319999,0.50999999,0.0,0.125,-0.008
4.0,-0.41909999,0.58069998,0.47469997,0.51139998,0.032,0.12400001,0.008
4.0,-0.4199,0.57769996,0.47619998,0.51279998,0.063,0.13100001,0.013
4.0,-0.42069998,0.5747,0.47759998,0.51419997,0.068,0.14,0.016
4.0,-0.4215,0.57179999,0.47869998,0.5158,0.052,0.14,0.01
4.0,-0.42229998,0.56889999,0.47979999,0.51739997,0.028,0.12,0.011
4.0,-0.42289999,0.56599998,0.48079997,0.51899999,0.015,0.1,0.01
4.0,-0.42369998,0.56349999,0.48169997,0.52029997,-0.012,0.1,-0.03
4.0,-0.42479998,0.56159997,0.48229998,0.52099997,-0.054,0.112,-0.06
4.0,-0.42609999,0.56009996,0.48269999,0.52109998,-0.072,0.12900001,-0.07600001
4.0,-0.42749998,0.55930001,0.48289999,0.52059996,-0.028,0.14,-0.094
4.0,-0.42879999,0.55900002,0.48299998,0.51980001,0.036,0.13700001,-0.09900001
4.0,-0.42969999,0.55909997,0.48299998,0.51899999,0.15100001,0.12200001,-0.083
4.0,-0.42969999,0.55909997,0.4831,0.5187,0.24600001,0.089,-0.08000001
4.0,-0.42909998,0.55909997,0.48339999,0.51899999,0.30100003,0.041,-0.06900001
4.0,-0.42789999,0.55900002,0.48379999,0.51969999,0.35000002,0.017,-0.03
4.0,-0.4262,0.5589,0.484,0.52109998,0.36800003,0.028,-0.019
4.0,-0.42399999,0.55869997,0.48389998,0.52319998,0.35700002,0.04,-0.017
4.0,-0.42129999,0.55860001,0.48359999,0.52579999,0.33600003,0.066,0.003
4.0,-0.41839999,0.55860001,0.48299998,0.52869999,0.31,0.09,0.018
4.0,-0.41549999,0.5589,0.48189998,0.5316,0.294,0.105,0.031
4.0,-0.41249999,0.55979997,0.4804,0.53439999,0.27800003,0.12900001,0.035
4.0,-0.40959999,0.56110001,0.47849998,0.53689998,0.23200001,0.16000001,0.037
4.0,-0.40699998,0.56259996,0.47639999,0.53909999,0.19100001,0.186,0.049
4.0,-0.40469998,0.56449997,0.47399998,0.54100001,0.177,0.21100001,0.07300001
4.0,-0.40269998,0.56659997,0.47139999,0.54259998,0.19800001,0.21900001,0.087
4.0,-0.40089998,0.56900001,0.4684,0.54399997,0.22500001,0.21300001,0.062
4.0,-0.39919999,0.57169998,0.46529999,0.54509997,0.23,0.149,0.003
4.0,-0.39769998,0.57459998,0.4621,0.54579997,0.22800002,0.074,-0.016
4.0,-0.3964,0.57779998,0.45889997,0.54609996,0.25100002,0.01,-0.026
4.0,-0.3955,0.5812,0.45539999,0.546,0.27000001,-0.038,-0.074
4.0,-0.39479998,0.58489996,0.4517,0.54570001,0.26200002,-0.047,-0.09900001
4.0,-0.39389998,0.58840001,0.44799998,0.5456,0.27700001,-0.03,-0.07600001
4.0,-0.3924,0.59119999,0.4447,0.54640001,0.33700001,-0.031,-0.052
4.0,-0.3906,0.59359998,0.44149998,0.54759997,0.37500003,-0.04,-0.054
4.0,-0.3881,0.59579998,0.43849999,0.54939997,0.38800001,-0.035,-0.074
4.0,-0.38479999,0.59749997,0.43579999,0.5521,0.37200001,-0.026,-0.07600001
4.0,-0.38049999,0.59889996,0.43339998,0.55549997,0.35000002,-0.046,-0.105
4.0,-0.37549999,0.60030001,0.43109998,0.55909997,0.30800003,-0.1,-0.12200001
4.0,-0.37019998,0.60209996,0.42859998,0.56269997,0.24200001,-0.123,-0.09500001
4.0,-0.36469999,0.60389996,0.42589998,0.56629997,0.19700001,-0.132,-0.058
4.0,-0.35909998,0.60569996,0.42319998,0.56999999,0.18700001,-0.15300001,-0.037
4.0,-0.35330001,0.60769999,0.42019999,0.57370001,0.18800001,-0.15700001,-0.049
4.0,-0.3475,0.6099,0.417,0.5772,0.16600001,-0.15300001,-0.046
4.0,-0.34169999,0.6124,0.41339999,0.58059996,0.15700001,-0.148,-0.017
4.0,-0.33609998,0.61539996,0.40939999,0.58359998,0.13600001,-0.147,-0.009
4.0,-0.33069998,0.61879998,0.40509999,0.58609998,0.09,-0.164,-0.058
4.0,-0.32549998,0.6225,0.40059999,0.58809996,0.056,-0.20200001,-0.07
4.0,-0.32029998,0.62619996,0.39609998,0.58999997,0.028,-0.21700001,-0.024
4.0,-0.31489998,0.62979996,0.3919,0.59200001,0.041,-0.22800002,-0.025
4.0,-0.30930001,0.63339996,0.38779998,0.59369999,0.032,-0.24200001,-0.037
4.0,-0.3037,0.6372,0.38369998,0.5952,0.03,-0.23800001,-0.025
4.0,-0.29789999,0.64059997,0.38,0.59689999,0.056,-0.21100001,-0.013
4.0,-0.292,0.6437,0.37649998,0.59869999,0.054,-0.17900001,0.002
4.0,-0.2861,0.64629996,0.37329999,0.60079998,0.031,-0.14,0.013
4.0,-0.2802,0.64829999,0.3705,0.6031,-0.013,-0.108,-0.015
4.0,-0.2746,0.65009999,0.36809999,0.60530001,-0.078,-0.067,-0.008
4.0,-0.26909998,0.65169996,0.36579999,0.6074,-0.112,-0.035,0.026
4.0,-0.264,0.653,0.3637,0.60949999,-0.141,-0.007,-0.01
4.0,-0.25889999,0.65399998,0.3617,0.61179996,-0.149,-0.026,-0.025
4.0,-0.25389999,0.6548,0.35979998,0.61409998,-0.13800001,-0.045,-0.014
4.0,-0.24929999,0.65539998,0.3581,0.61629999,-0.13700001,-0.09500001,-0.015
4.0,-0.24429999,0.65609998,0.3556,0.61899996,-0.14600001,-0.23500001,-0.004
4.0,-0.23969999,0.65669996,0.35369998,0.62129998,-0.17200001,-0.028,-0.036
4.0,-0.2358,0.6566,0.3524,0.62360001,-0.19500001,0.06,-0.019
4.0,-0.2322,0.65630001,0.3511,0.62599999,-0.223,0.058,-0.026
4.0,-0.22849999,0.65579998,0.34989998,0.62849998,-0.23100001,-0.004,-0.009
4.0,-0.22479999,0.65499997,0.34899998,0.63129997,-0.22700001,-0.011,-0.01
4.0,-0.2208,0.65349996,0.34869999,0.63440001,-0.23100001,-0.015,-0.015
4.0,-0.21689999,0.65200001,0.3484,0.63739997,-0.18900001,-0.042,0.016
4.0,-0.2131,0.65039998,0.34819999,0.64050001,-0.16100001,-0.041,0.027
4.0,-0.2094,0.64840001,0.34779999,0.64389998,-0.17400001,-0.022,0.019
4.0,-0.2061,0.64609998,0.3475,0.64739996,-0.22600001,-0.002,-0.008
4.0,-0.2033,0.6437,0.34729999,0.65079999,-0.28300002,0.0,0.004
4.0,-0.20109999,0.64139998,0.34689999,0.65399998,-0.29800001,0.019,0.034
4.0,-0.19949999,0.63909996,0.34669998,0.65679997,-0.29800001,0.014,0.041
4.0,-0.1981,0.63669997,0.34669998,0.6595,-0.287,0.009,0.032
4.0,-0.1971,0.63440001,0.3468,0.662,-0.27400002,0.001,0.013
4.0,-0.197,0.63279998,0.34630001,0.6638,-0.29300001,0.013,-0.049
4.0,-0.19759999,0.63150001,0.34579998,0.66509998,-0.296,0.004,-0.072
4.0,-0.19829999,0.63019997,0.3457,0.66619998,-0.29800001,-0.005,-0.072
4.0,-0.19919999,0.6286,0.3461,0.66729999,-0.25400001,-0.006,-0.074
4.0,-0.20039999,0.6268,0.3468,0.66819996,-0.20700002,-0.015,-0.10600001
4.0,-0.20179999,0.62479997,0.3477,0.6692,-0.19900002,-0.012,-0.105
4.0,-0.2032,0.62239999,0.3488,0.67039996,-0.20400001,-0.011,-0.09100001
4.0,-0.20449999,0.61949998,0.35029998,0.67199999,-0.19000001,-0.015,-0.062
4.0,-0.206,0.6164,0.352,0.6735,-0.162,-0.022,-0.06900001
4.0,-0.20789999,0.61339998,0.3536,0.67469996,-0.16100001,-0.006,-0.081
4.0,-0.2101,0.61039996,0.35529998,0.67589998,-0.16000001,0.006,-0.072
4.0,-0.2122,0.60729998,0.3572,0.67699999,-0.12800001,-0.006,-0.056
4.0,-0.21429999,0.60429996,0.3592,0.67809999,-0.10200001,0.005,-0.051
4.0,-0.2165,0.60139996,0.36109999,0.6789,-0.08000001,0.014,-0.066
4.0,-0.21879999,0.5984,0.36289999,0.67979997,-0.10600001,0.016,-0.051
4.0,-0.2208,0.59499997,0.36479998,0.68110001,-0.09900001,0.005,-0.029
4.0,-0.2227,0.59169996,0.36659998,0.68239999,-0.094,-0.004,-0.029
4.0,-0.22469999,0.58859998,0.36809999,0.68360001,-0.108,0.007,-0.043
4.0,-0.22679999,0.58569998,0.36949998,0.68470001,-0.11100001,0.024,-0.057
4.0,-0.2289,0.58289999,0.37090001,0.68559998,-0.10700001,0.055,-0.07
4.0,-0.23109999,0.58019996,0.3723,0.6864,-0.09100001,0.089,-0.061
4.0,-0.2333,0.5776,0.37369999,0.68709999,-0.09200001,0.112,-0.058
4.0,-0.2351,0.57489997,0.37509999,0.68790001,-0.093,0.11400001,-0.05
4.0,-0.2368,0.57239997,0.37649998,0.68879998,-0.08000001,0.10300001,-0.038
4.0,-0.2383,0.56999999,0.3777,0.68949997,-0.07,0.066,-0.039
4.0,-0.23959999,0.56779999,0.37909999,0.69009995,-0.07600001,0.044,-0.051
4.0,-0.24069999,0.56580001,0.38069999,0.69049996,-0.067,0.046,-0.06
4.0,-0.24169999,0.56379998,0.38239998,0.69089997,-0.055,0.061,-0.059
4.0,-0.2427,0.56189996,0.38409999,0.6911,-0.06500001,0.08400001,-0.051
4.0,-0.2436,0.55989999,0.38589999,0.69139999,-0.078,0.082,-0.039
4.0,-0.2445,0.55809999,0.3876,0.69159997,-0.086,0.058,-0.024
4.0,-0.24519999,0.55649996,0.38909999,0.6918,-0.098,0.013,-0.008
4.0,-0.24599999,0.55500001,0.3906,0.69189996,-0.108,-0.016,0.019
4.0,-0.24679999,0.5535,0.39209998,0.69189996,-0.127,-0.021,0.048
4.0,-0.24789999,0.55199999,0.3935,0.69189996,-0.134,-0.016,0.06500001
4.0,-0.24919999,0.55049998,0.39479998,0.69189996,-0.119,0.0,0.06900001
4.0,-0.25059998,0.54890001,0.39609998,0.69189996,-0.119,0.03,0.056
4.0,-0.25239998,0.54729998,0.39729998,0.69189996,-0.12200001,0.053,0.055
4.0,-0.2543,0.5456,0.39859998,0.69169998,-0.12100001,0.051,0.051
4.0,-0.25639999,0.54399997,0.3998,0.69150001,-0.15400001,0.042,0.032
4.0,-0.25869998,0.54229999,0.40109998,0.69129997,-0.17,0.024,0.049
4.0,-0.26119998,0.54030001,0.4025,0.6911,-0.18800001,0.009,0.089
4.0,-0.264,0.53799999,0.40399998,0.69099998,-0.15900001,0.004,0.11800001
4.0,-0.26710001,0.53569996,0.40549999,0.69080001,-0.08800001,0.007,0.09100001
4.0,-0.27079999,0.53359997,0.4068,0.69009995,-0.078,0.038,0.03
4.0,-0.2753,0.53179997,0.40789998,0.68909997,-0.112,0.09200001,0.017
4.0,-0.2802,0.52969998,0.40889999,0.6882,-0.14,0.119,0.023
4.0,-0.28529999,0.52700001,0.40979999,0.6875,-0.127,0.11400001,0.027
4.0,-0.29029998,0.52410001,0.4109,0.68709999,-0.12200001,0.051,0.03
4.0,-0.29499999,0.5212,0.4118,0.68669999,-0.13700001,0.001,0.066
4.0,-0.29949999,0.5183,0.41249999,0.68649995,-0.056,-0.047,0.13000001
4.0,-0.3039,0.51519996,0.4131,0.68659997,0.022,-0.07300001,0.127
4.0,-0.3087,0.51209998,0.41339999,0.68659997,0.034,-0.048,0.05
4.0,-0.3141,0.50919998,0.41339999,0.68629998,-0.026,0.037,-0.011
4.0,-0.32009998,0.5061,0.41339999,0.68579996,-0.06900001,0.13000001,-0.029
4.0,-0.3265,0.50279999,0.41329998,0.68529999,-0.14,0.18900001,-0.058
4.0,-0.33289999,0.49939999,0.4131,0.68479997,-0.164,0.13100001,-0.024
4.0,-0.33849999,0.49589998,0.41329998,0.68449998,-0.067,0.023,0.039
4.0,-0.3434,0.49269998,0.41389999,0.68399996,0.08400001,-0.08000001,0.045
4.0,-0.3479,0.49039999,0.4145,0.68299997,0.16100001,-0.123,0.0
4.0,-0.35259998,0.48889998,0.41479999,0.68149996,0.132,-0.08000001,-0.062
4.0,-0.3576,0.48769999,0.41499999,0.6796,0.057,0.001,-0.074
4.0,-0.3628,0.48609999,0.4152,0.6778,-0.021,0.11700001,-0.039
4.0,-0.368,0.48429999,0.4156,0.67609996,-0.11400001,0.15200001,-0.059
4.0,-0.37269998,0.4822,0.4163,0.67460001,-0.036,0.071,0.029
4.0,-0.37629998,0.4797,0.4174,0.67359996,0.15400001,-0.047,0.155
4.0,-0.37970001,0.47749999,0.4183,0.67269999,0.24600001,-0.13100001,0.15000001
4.0,-0.38339999,0.47649997,0.41839999,0.67129999,0.223,-0.13700001,0.044
4.0,-0.38709998,0.4761,0.41799998,0.66969997,0.13600001,-0.055,-0.005
4.0,-0.3908,0.47559997,0.41749999,0.66819996,0.055,0.07300001,-0.016
4.0,-0.39479998,0.47509998,0.41679999,0.66670001,-0.058,0.23,-0.033
4.0,-0.39899999,0.47439998,0.4161,0.66509998,-0.17400001,0.24800001,-0.072
4.0,-0.4034,0.47379997,0.4154,0.66329998,-0.20200001,0.132,-0.053
4.0,-0.4077,0.47319999,0.41499999,0.66139996,-0.058,-0.044,0.049
4.0,-0.41149998,0.47279999,0.41489998,0.65939999,0.12900001,-0.15400001,0.035
4.0,-0.41499999,0.47299999,0.41459998,0.6573,0.20500001,-0.193,-0.1
4.0,-0.41819999,0.47379997,0.41399997,0.65509999,0.15900001,-0.15300001,-0.17400001
4.0,-0.42109999,0.47419998,0.4136,0.65309995,0.08000001,-0.062,-0.15100001
4.0,-0.42409998,0.47409999,0.4136,0.6512,0.008,0.034,-0.115
4.0,-0.42729998,0.4734,0.4138,0.64950001,-0.035,0.098,-0.109
4.0,-0.4303,0.47239998,0.4145,0.64789999,-0.06500001,0.11300001,-0.10700001
4.0,-0.43309999,0.47099999,0.41569999,0.6462,-0.09,0.045,-0.08400001
4.0,-0.43579999,0.46879998,0.41749999,0.64480001,-0.011,-0.028,0.038
4.0,-0.43799999,0.46609998,0.4197,0.64389998,0.12100001,-0.079,0.096
4.0,-0.43989998,0.46339998,0.4217,0.64319998,0.21300001,-0.098,0.018
4.0,-0.44139999,0.461,0.4235,0.64269996,0.2,-0.09100001,-0.05
4.0,-0.44239998,0.4587,0.42539999,0.64239997,0.155,-0.063,-0.048
4.0,-0.4429,0.45649999,0.42729998,0.64239997,0.15300001,-0.02,-0.012
4.0,-0.44329998,0.45459998,0.42879999,0.64249998,0.19500001,0.01,0.011
4.0,-0.4436,0.4531,0.42989999,0.6426,0.27200001,0.037,0.0
4.0,-0.44329998,0.45179999,0.43069997,0.64309996,0.36200002,0.039,-0.011
4.0,-0.44239998,0.4506,0.43159997,0.64399999,0.41700003,0.032,-0.009
4.0,-0.44059998,0.44929999,0.43259999,0.6455,0.46000001,0.02,-0.007
4.0,-0.43779999,0.44779998,0.43359998,0.64779997,0.48100004,0.014,-0.022
4.0,-0.43399999,0.44639999,0.4346,0.65059996,0.48500001,0.002,-0.068
4.0,-0.42929998,0.44529998,0.43559998,0.65380001,0.46900001,-0.007,-0.12200001
4.0,-0.42369998,0.44439998,0.4364,0.65759999,0.43700001,-0.008,-0.15400001
4.0,-0.4174,0.44369999,0.43709999,0.66149998,0.42100003,0.018,-0.16600001
4.0,-0.4104,0.44309998,0.4377,0.66589999,0.40700001,0.048,-0.16800001
4.0,-0.40269998,0.4425,0.4384,0.6706,0.39200002,0.067,-0.156
4.0,-0.39429998,0.4418,0.43899998,0.67559999,0.36200002,0.085,-0.13900001
4.0,-0.38519999,0.44079998,0.43959999,0.68110001,0.30800003,0.11400001,-0.11100001
4.0,-0.37559998,0.43969998,0.44009998,0.6868,0.252,0.14,-0.085
4.0,-0.36569998,0.43849999,0.44039997,0.69260001,0.18700001,0.164,-0.07
4.0,-0.35599998,0.4375,0.44039997,0.69839996,0.11700001,0.16000001,-0.06500001
4.0,-0.34639999,0.4366,0.44,0.704,0.056,0.126,-0.061
4.0,-0.3373,0.43599999,0.43939999,0.70910001,0.018,0.08000001,-0.06900001
4.0,-0.3285,0.4357,0.43869999,0.71389997,-0.006,0.06900001,-0.096
4.0,-0.31979999,0.43529999,0.43799999,0.7184,-0.012,0.081,-0.11300001
4.0,-0.31149998,0.43489999,0.43739998,0.7227,0.004,0.094,-0.12
4.0,-0.30320001,0.43429998,0.4368,0.72689998,0.03,0.09500001,-0.11700001
4.0,-0.29479998,0.43349999,0.43629998,0.73119998,0.042,0.09200001,-0.109
4.0,-0.28599998,0.4323,0.4357,0.73569995,0.053,0.09,-0.098
4.0,-0.27680001,0.43079999,0.43529999,0.74039996,0.055,0.09500001,-0.093
4.0,-0.26719999,0.42879999,0.43509999,0.74509996,0.054,0.09900001,-0.09
4.0,-0.25740001,0.42639998,0.435,0.75,0.045,0.09100001,-0.085
4.0,-0.2473,0.42369998,0.435,0.75489998,0.034,0.086,-0.08000001
4.0,-0.23709999,0.42089999,0.43509999,0.7597,0.019,0.078,-0.06900001
4.0,-0.227,0.41769999,0.43529999,0.76440001,-0.017,0.074,-0.07
4.0,-0.2172,0.41429999,0.43519998,0.76909995,-0.034,0.06500001,-0.064
4.0,-0.2078,0.41119999,0.43489999,0.77359998,-0.049,0.049,-0.053
4.0,-0.1989,0.40889999,0.43419999,0.77749997,-0.07700001,0.049,-0.023
4.0,-0.19059999,0.4077,0.43309999,0.78079998,-0.085,0.068,0.019
4.0,-0.18359999,0.40779999,0.4314,0.78329998,-0.15400001,0.062,0.07700001
4.0,-0.17799999,0.40899998,0.4294,0.78509998,-0.22500001,0.06500001,0.063
4.0,-0.1726,0.41059998,0.42749998,0.78659999,-0.21000001,0.06500001,0.015
4.0,-0.1672,0.41239998,0.4258,0.7877,-0.11400001,0.056,0.013
4.0,-0.1617,0.41429999,0.42379999,0.78889996,-0.06500001,0.056,0.014
4.0,-0.156,0.41579998,0.4217,0.79039997,-0.031,0.028,0.022
4.0,-0.14999999,0.41669998,0.41949999,0.79229999,0.026,0.003,0.024
4.0,-0.1437,0.417,0.4172,0.79449999,0.029,0.006,0.019
4.0,-0.13679999,0.41689998,0.41479999,0.79710001,-0.001,-0.007,0.015
4.0,-0.1294,0.4165,0.41249999,0.79969996,-0.032,-0.035,0.015
4.0,-0.1218,0.41599998,0.41029999,0.80229998,-0.059,-0.029,0.025
4.0,-0.1142,0.4152,0.4082,0.80479997,-0.07,-0.004,0.05
4.0,-0.1067,0.41389999,0.40619999,0.8075,-0.089,0.018,0.079
4.0,-0.0994,0.41249999,0.40399998,0.81029999,-0.12100001,0.027,0.078
4.0,-0.0923,0.4111,0.40169999,0.81290001,-0.164,0.037,0.062
4.0,-0.0859,0.41009998,0.3994,0.81529999,-0.19700001,0.043,0.056
4.0,-0.0799,0.4093,0.39699998,0.8175,-0.20200001,0.038,0.074
4.0,-0.07449999,0.40889999,0.3944,0.81949997,-0.18400002,0.032,0.097
4.0,-0.0692,0.4084,0.3917,0.8215,-0.133,0.022,0.10600001
4.0,-0.0641,0.4077,0.38889998,0.82359999,-0.08400001,0.014,0.1
4.0,-0.0589,0.4066,0.38599998,0.82589996,-0.053,-0.001,0.07600001
4.0,-0.0538,0.405,0.38319999,0.8283,-0.07,-0.01,0.045
4.0,-0.0489,0.4032,0.38049999,0.83069998,-0.10200001,-0.011,0.009
4.0,-0.0443,0.4012,0.37809998,0.83309996,-0.13000001,-0.006,-0.002
4.0,-0.0401,0.39919999,0.3757,0.83529997,-0.14300001,-0.005,0.004
4.0,-0.0361,0.39749998,0.37329999,0.83739996,-0.13800001,-0.011,0.014
4.0,-0.0325,0.39589998,0.37079999,0.83929998,-0.12200001,-0.025,0.007
4.0,-0.029,0.39449999,0.36849999,0.84109998,-0.116,-0.031,-0.016
4.0,-0.0257,0.39319998,0.36649999,0.8427,-0.126,-0.03,-0.046
4.0,-0.0229,0.39199999,0.36479998,0.8441,-0.149,-0.012,-0.063
4.0,-0.0203,0.3908,0.36319998,0.84539998,-0.15400001,-0.003,-0.072
4.0,-0.0178,0.3897,0.3617,0.84669995,-0.148,-0.008,-0.07
4.0,-0.0156,0.38869998,0.36039999,0.8477,-0.133,-0.019,-0.071
4.0,-0.0135,0.38769999,0.35929999,0.84869999,-0.11800001,-0.022,-0.07600001
4.0,-0.0115,0.3867,0.3583,0.84959996,-0.10700001,-0.013,-0.086
4.0,-0.0096,0.3854,0.3576,0.85049999,-0.104,-0.018,-0.082
4.0,-0.0079,0.384,0.35709998,0.85139996,-0.105,-0.024,-0.08000001
4.0,-0.0063,0.38259998,0.35679999,0.85209996,-0.10700001,-0.018,-0.075
4.0,-0.0051,0.38119999,0.35679999,0.85279995,-0.11000001,-0.007,-0.066
4.0,-0.0041,0.37989998,0.35699999,0.85319996,-0.11800001,-0.005,-0.058
4.0,-0.0036,0.37899998,0.3574,0.85349995,-0.134,-0.01,-0.072
4.0,-0.0035,0.37829998,0.35799998,0.85359997,-0.15100001,-0.028,-0.07700001
4.0,-0.0038,0.37799999,0.35879999,0.85329998,-0.163,-0.045,-0.071
4.0,-0.0048,0.3784,0.35979998,0.8527,-0.16800001,-0.053,-0.067
4.0,-0.0063,0.37919998,0.361,0.85189998,-0.16100001,-0.054,-0.066
4.0,-0.0084,0.3802,0.36229998,0.85079998,-0.15200001,-0.05,-0.06500001
4.0,-0.0111,0.3813,0.36389998,0.84959996,-0.14500001,-0.04,-0.07600001
4.0,-0.0141,0.38249999,0.36579999,0.84819996,-0.14400001,-0.032,-0.08000001
4.0,-0.0178,0.384,0.368,0.84649998,-0.15200001,-0.011,-0.09900001
4.0,-0.0221,0.38569999,0.37039998,0.84459996,-0.16100001,0.005,-0.096
4.0,-0.0269,0.38769999,0.37279999,0.84249997,-0.155,0.014,-0.096
4.0,-0.0322,0.38999999,0.37539998,0.84009999,-0.149,0.022,-0.08800001
4.0,-0.0378,0.39219999,0.37809998,0.83759999,-0.134,0.016,-0.07700001
4.0,-0.0436,0.3944,0.3811,0.83499998,-0.10600001,0.011,-0.07
4.0,-0.0496,0.3964,0.38439998,0.83219999,-0.07700001,0.02,-0.066
4.0,-0.0558,0.39819998,0.38779998,0.82929999,-0.07600001,0.035,-0.09
4.0,-0.0622,0.39969999,0.39129999,0.8265,-0.07,0.036,-0.104
4.0,-0.0685,0.4012,0.39489999,0.82359999,-0.048,0.034,-0.089
4.0,-0.0747,0.40269998,0.39839998,0.82059997,-0.02,0.049,-0.075
4.0,-0.0808,0.4043,0.40189999,0.8175,-0.001,0.047,-0.06500001
