SensorId, TimeStamp (s), FrameNumber, AccX (g), AccY (g), AccZ (g), GyroX (deg/s), GyroY (deg/s), GyroZ (deg/s), MagX (uT), MagY (uT), MagZ (uT), EulerX (deg), EulerY (deg), EulerZ (deg), QuatW, QuatX, QuatY, QuatZ, LinAccX (g), LinAccY (g), LinAccZ (g), Pressure (kPa), Altitude (m), Temperature (degC), HeaveMotion (m)
1, -0.0000, 0, 0.00000000, 0.00000000, 0.00000000, 0.00000000, 0.00000000, 0.00000000, 0.00000000, 0.00000000, 0.00000000, 0.00000000, 0.00000000, 0.00000000, -0.67069995, -0.03710000, 0.74070001, 0.00100000, -0.00100000, 0.02100000, 0.01800000, 0.00000000, 0.00000000, 0.00000000, 0.00000000
1, 0.0100, 1, 0.00000000, 0.00000000, 0.00000000, 0.00000000, 0.00000000, 0.00000000, 0.00000000, 0.00000000, 0.00000000, 0.00000000, 0.00000000, 0.00000000, -0.67089999, -0.03660000, 0.74049997, 0.00100000, -0.00200000, 0.03200000, 0.01600000, 0.00000000, 0.00000000, 0.00000000, 0.00000000
1, 0.0200, 2, 0.00000000, 0.00000000, 0.00000000, 0.00000000, 0.00000000, 0.00000000, 0.00000000, 0.00000000, 0.00000000, 0.00000000, 0.00000000, 0.00000000, -0.67109996, -0.03610000, 0.74039996, 0.00100000, -0.01300000, 0.03600000, 0.00900000, 0.00000000, 0.00000000, 0.00000000, 0.00000000
1, 0.0300, 3, 0.00000000, 0.00000000, 0.00000000, 0.00000000, 0.00000000, 0.00000000, 0.00000000, 0.00000000, 0.00000000, 0.00000000, 0.00000000, 0.00000000, -0.67129999, -0.03550000, 0.74030000, 0.00100000, -0.02300000, 0.03600000, 0.00700000, 0.00000000, 0.00000000, 0.00000000, 0.00000000
1, 0.0400, 4, 0.00000000, 0.00000000, 0.00000000, 0.00000000, 0.00000000, 0.00000000, 0.00000000, 0.00000000, 0.00000000, 0.00000000, 0.00000000, 0.00000000, -0.67149997, -0.03500000, 0.74009997, 0.00100000, -0.02400000, 0.04200000, 0.00600000, 0.00000000, 0.00000000, 0.00000000, 0.00000000
1, 0.0500, 5, 0.00000000, 0.00000000, 0.00000000, 0.00000000, 0.00000000, 0.00000000, 0.00000000, 0.00000000, 0.00000000, 0.00000000, 0.00000000, 0.00000000, -0.67170000, -0.03440000, 0.73989999, 0.00110000, -0.01800000, 0.02100000, 0.00700000, 0.00000000, 0.00000000, 0.00000000, 0.00000000
1, 0.0600, 6, 0.00000000, 0.00000000, 0.00000000, 0.00000000, 0.00000000, 0.00000000, 0.00000000, 0.00000000, 0.00000000, 0.00000000, 0.00000000, 0.00000000, -0.67199999, -0.03390000, 0.73960000, 0.00130000, -0.00200000, -0.00700000, -0.00900000, 0.00000000, 0.00000000, 0.00000000, 0.00000000
1, 0.0700, 7, 0.00000000, 0.00000000, 0.00000000, 0.00000000, 0.00000000, 0.00000000, 0.00000000, 0.00000000, 0.00000000, 0.00000000, 0.00000000, 0.00000000, -0.67229998, -0.03340000, 0.73939997, 0.00150000, 0.01400000, -0.03100000, -0.01500000, 0.00000000, 0.00000000, 0.00000000, 0.00000000
1, 0.0800, 8, 0.00000000, 0.00000000, 0.00000000, 0.00000000, 0.00000000, 0.00000000, 0.00000000, 0.00000000, 0.00000000, 0.00000000, 0.00000000, 0.00000000, -0.67269999, -0.03280000, 0.73909998, 0.00160000, 0.01900000, -0.04100000, -0.01100000, 0.00000000, 0.00000000, 0.00000000, 0.00000000
1, 0.0900, 9, 0.00000000, 0.00000000, 0.00000000, 0.00000000, 0.00000000, 0.00000000, 0.00000000, 0.00000000, 0.00000000, 0.00000000, 0.00000000, 0.00000000, -0.67309999, -0.03220000, 0.73879999, 0.00160000, 0.00800000, -0.02500000, 0.00000000, 0.00000000, 0.00000000, 0.00000000, 0.00000000
1, 0.1000, 10, 0.00000000, 0.00000000, 0.00000000, 0.00000000, 0.00000000, 0.00000000, 0.00000000, 0.00000000, 0.00000000, 0.00000000, 0.00000000, 0.00000000, -0.67339998, -0.03140000, 0.73850000, 0.00150000, -0.00400000, 0.02000000, 0.00900000, 0.00000000, 0.00000000, 0.00000000, 0.00000000
1, 0.1100, 11, 0.00000000, 0.00000000, 0.00000000, 0.00000000, 0.00000000, 0.00000000, 0.00000000, 0.00000000, 0.00000000, 0.00000000, 0.00000000, 0.00000000, -0.67379999, -0.03060000, 0.73820001, 0.00140000, -0.01200000, 0.04600000, 0.00000000, 0.00000000, 0.00000000, 0.00000000, 0.00000000
1, 0.1200, 12, 0.00000000, 0.00000000, 0.00000000, 0.00000000, 0.00000000, 0.00000000, 0.00000000, 0.00000000, 0.00000000, 0.00000000, 0.00000000, 0.00000000, -0.67409998, -0.02990000, 0.73799998, 0.00120000, -0.01300000, 0.06500001, -0.00400000, 0.00000000, 0.00000000, 0.00000000, 0.00000000
1, 0.1300, 13, 0.00000000, 0.00000000, 0.00000000, 0.00000000, 0.00000000, 0.00000000, 0.00000000, 0.00000000, 0.00000000, 0.00000000, 0.00000000, 0.00000000, -0.67439997, -0.02910000, 0.73769999, 0.00130000, -0.00200000, 0.08200000, -0.01300000, 0.00000000, 0.00000000, 0.00000000, 0.00000000
1, 0.1400, 14, 0.00000000, 0.00000000, 0.00000000, 0.00000000, 0.00000000, 0.00000000, 0.00000000, 0.00000000, 0.00000000, 0.00000000, 0.00000000, 0.00000000, -0.67479998, -0.02850000, 0.73729998, 0.00150000, 0.00600000, 0.07400000, -0.02600000, 0.00000000, 0.00000000, 0.00000000, 0.00000000
1, 0.1500, 15, 0.00000000, 0.00000000, 0.00000000, 0.00000000, 0.00000000, 0.00000000, 0.00000000, 0.00000000, 0.00000000, 0.00000000, 0.00000000, 0.00000000, -0.67519999, -0.02800000, 0.73699999, 0.00200000, 0.00800000, 0.05200000, -0.03500000, 0.00000000, 0.00000000, 0.00000000, 0.00000000
1, 0.1600, 16, 0.00000000, 0.00000000, 0.00000000, 0.00000000, 0.00000000, 0.00000000, 0.00000000, 0.00000000, 0.00000000, 0.00000000, 0.00000000, 0.00000000, -0.67570001, -0.02760000, 0.73659998, 0.00270000, 0.00000000, 0.02300000, -0.03100000, 0.00000000, 0.00000000, 0.00000000, 0.00000000
1, 0.1700, 17, 0.00000000, 0.00000000, 0.00000000, 0.00000000, 0.00000000, 0.00000000, 0.00000000, 0.00000000, 0.00000000, 0.00000000, 0.00000000, 0.00000000, -0.67609996, -0.02730000, 0.73619998, 0.00340000, -0.00200000, 0.00100000, -0.02800000, 0.00000000, 0.00000000, 0.00000000, 0.00000000
1, 0.1800, 18, 0.00000000, 0.00000000, 0.00000000, 0.00000000, 0.00000000, 0.00000000, 0.00000000, 0.00000000, 0.00000000, 0.00000000, 0.00000000, 0.00000000, -0.67670000, -0.02700000, 0.73569995, 0.00410000, -0.00900000, -0.01300000, -0.02800000, 0.00000000, 0.00000000, 0.00000000, 0.00000000
1, 0.1900, 19, 0.00000000, 0.00000000, 0.00000000, 0.00000000, 0.00000000, 0.00000000, 0.00000000, 0.00000000, 0.00000000, 0.00000000, 0.00000000, 0.00000000, -0.67719996, -0.02650000, 0.73519999, 0.00460000, -0.01500000, -0.01400000, -0.02600000, 0.00000000, 0.00000000, 0.00000000, 0.00000000
1, 0.2000, 20, 0.00000000, 0.00000000, 0.00000000, 0.00000000, 0.00000000, 0.00000000, 0.00000000, 0.00000000, 0.00000000, 0.00000000, 0.00000000, 0.00000000, -0.67789996, -0.02600000, 0.73460001, 0.00510000, -0.01300000, -0.02000000, -0.02000000, 0.00000000, 0.00000000, 0.00000000, 0.00000000
1, 0.2100, 21, 0.00000000, 0.00000000, 0.00000000, 0.00000000, 0.00000000, 0.00000000, 0.00000000, 0.00000000, 0.00000000, 0.00000000, 0.00000000, 0.00000000, -0.67850000, -0.02550000, 0.73399997, 0.00560000, -0.00600000, -0.03500000, -0.02400000, 0.00000000, 0.00000000, 0.00000000, 0.00000000
1, 0.2200, 22, 0.00000000, 0.00000000, 0.00000000, 0.00000000, 0.00000000, 0.00000000, 0.00000000, 0.00000000, 0.00000000, 0.00000000, 0.00000000, 0.00000000, -0.67919999, -0.02490000, 0.73350000, 0.00600000, -0.00500000, -0.04000000, -0.03500000, 0.00000000, 0.00000000, 0.00000000, 0.00000000
1, 0.2300, 23, 0.00000000, 0.00000000, 0.00000000, 0.00000000, 0.00000000, 0.00000000, 0.00000000, 0.00000000, 0.00000000, 0.00000000, 0.00000000, 0.00000000, -0.67979997, -0.02420000, 0.73289996, 0.00610000, -0.00900000, -0.03600000, -0.04600000, 0.00000000, 0.00000000, 0.00000000, 0.00000000
1, 0.2400, 24, 0.00000000, 0.00000000, 0.00000000, 0.00000000, 0.00000000, 0.00000000, 0.00000000, 0.00000000, 0.00000000, 0.00000000, 0.00000000, 0.00000000, -0.68030000, -0.02350000, 0.73240000, 0.00610000, -0.00800000, -0.00700000, -0.05700000, 0.00000000, 0.00000000, 0.00000000, 0.00000000
1, 0.2500, 25, 0.00000000, 0.00000000, 0.00000000, 0.00000000, 0.00000000, 0.00000000, 0.00000000, 0.00000000, 0.00000000, 0.00000000, 0.00000000, 0.00000000, -0.68089998, -0.02270000, 0.73189998, 0.00590000, 0.00000000, 0.03000000, -0.06300000, 0.00000000, 0.00000000, 0.00000000, 0.00000000
1, 0.2600, 26, 0.00000000, 0.00000000, 0.00000000, 0.00000000, 0.00000000, 0.00000000, 0.00000000, 0.00000000, 0.00000000, 0.00000000, 0.00000000, 0.00000000, -0.68140000, -0.02200000, 0.73139995, 0.00570000, 0.00700000, 0.05500000, -0.07200000, 0.00000000, 0.00000000, 0.00000000, 0.00000000
1, 0.2700, 27, 0.00000000, 0.00000000, 0.00000000, 0.00000000, 0.00000000, 0.00000000, 0.00000000, 0.00000000, 0.00000000, 0.00000000, 0.00000000, 0.00000000, -0.68199998, -0.02130000, 0.73089999, 0.00560000, 0.01700000, 0.05200000, -0.08000001, 0.00000000, 0.00000000, 0.00000000, 0.00000000
1, 0.2800, 28, 0.00000000, 0.00000000, 0.00000000, 0.00000000, 0.00000000, 0.00000000, 0.00000000, 0.00000000, 0.00000000, 0.00000000, 0.00000000, 0.00000000, -0.68259996, -0.02070000, 0.73030001, 0.00550000, 0.02000000, 0.03400000, -0.08600000, 0.00000000, 0.00000000, 0.00000000, 0.00000000
1, 0.2900, 29, 0.00000000, 0.00000000, 0.00000000, 0.00000000, 0.00000000, 0.00000000, 0.00000000, 0.00000000, 0.00000000, 0.00000000, 0.00000000, 0.00000000, -0.68329996, -0.02020000, 0.72969997, 0.00560000, 0.01400000, 0.01000000, -0.07700001, 0.00000000, 0.00000000, 0.00000000, 0.00000000
1, 0.3000, 30, 0.00000000, 0.00000000, 0.00000000, 0.00000000, 0.00000000, 0.00000000, 0.00000000, 0.00000000, 0.00000000, 0.00000000, 0.00000000, 0.00000000, -0.68409997, -0.01980000, 0.72899997, 0.00580000, 0.00000000, 0.00000000, -0.05400000, 0.00000000, 0.00000000, 0.00000000, 0.00000000
1, 0.3100, 31, 0.00000000, 0.00000000, 0.00000000, 0.00000000, 0.00000000, 0.00000000, 0.00000000, 0.00000000, 0.00000000, 0.00000000, 0.00000000, 0.00000000, -0.68489999, -0.01970000, 0.72829998, 0.00600000, -0.01600000, 0.01400000, -0.03200000, 0.00000000, 0.00000000, 0.00000000, 0.00000000
1, 0.3200, 32, 0.00000000, 0.00000000, 0.00000000, 0.00000000, 0.00000000, 0.00000000, 0.00000000, 0.00000000, 0.00000000, 0.00000000, 0.00000000, 0.00000000, -0.68579996, -0.01960000, 0.72740000, 0.00630000, -0.01700000, 0.04200000, -0.03000000, 0.00000000, 0.00000000, 0.00000000, 0.00000000
1, 0.3300, 33, 0.00000000, 0.00000000, 0.00000000, 0.00000000, 0.00000000, 0.00000000, 0.00000000, 0.00000000, 0.00000000, 0.00000000, 0.00000000, 0.00000000, -0.68680000, -0.01950000, 0.72649997, 0.00660000, -0.01600000, 0.06800000, -0.03500000, 0.00000000, 0.00000000, 0.00000000, 0.00000000
1, 0.3400, 34, 0.00000000, 0.00000000, 0.00000000, 0.00000000, 0.00000000, 0.00000000, 0.00000000, 0.00000000, 0.00000000, 0.00000000, 0.00000000, 0.00000000, -0.68769997, -0.01950000, 0.72560000, 0.00700000, -0.01500000, 0.08600000, -0.05200000, 0.00000000, 0.00000000, 0.00000000, 0.00000000
1, 0.3500, 35, 0.00000000, 0.00000000, 0.00000000, 0.00000000, 0.00000000, 0.00000000, 0.00000000, 0.00000000, 0.00000000, 0.00000000, 0.00000000, 0.00000000, -0.68879998, -0.01950000, 0.72459996, 0.00750000, -0.00100000, 0.10100000, -0.07600001, 0.00000000, 0.00000000, 0.00000000, 0.00000000
1, 0.3600, 36, 0.00000000, 0.00000000, 0.00000000, 0.00000000, 0.00000000, 0.00000000, 0.00000000, 0.00000000, 0.00000000, 0.00000000, 0.00000000, 0.00000000, -0.68989998, -0.01960000, 0.72349995, 0.00830000, 0.01100000, 0.09500001, -0.09100001, 0.00000000, 0.00000000, 0.00000000, 0.00000000
1, 0.3700, 37, 0.00000000, 0.00000000, 0.00000000, 0.00000000, 0.00000000, 0.00000000, 0.00000000, 0.00000000, 0.00000000, 0.00000000, 0.00000000, 0.00000000, -0.69099998, -0.01970000, 0.72240001, 0.00920000, 0.01600000, 0.07800000, -0.10700001, 0.00000000, 0.00000000, 0.00000000, 0.00000000
1, 0.3800, 38, 0.00000000, 0.00000000, 0.00000000, 0.00000000, 0.00000000, 0.00000000, 0.00000000, 0.00000000, 0.00000000, 0.00000000, 0.00000000, 0.00000000, -0.69239998, -0.02000000, 0.72109997, 0.01040000, 0.02100000, 0.04300000, -0.10600001, 0.00000000, 0.00000000, 0.00000000, 0.00000000
1, 0.3900, 39, 0.00000000, 0.00000000, 0.00000000, 0.00000000, 0.00000000, 0.00000000, 0.00000000, 0.00000000, 0.00000000, 0.00000000, 0.00000000, 0.00000000, -0.69379997, -0.02040000, 0.71969998, 0.01180000, 0.02100000, 0.00500000, -0.08300000, 0.00000000, 0.00000000, 0.00000000, 0.00000000
1, 0.4000, 40, 0.00000000, 0.00000000, 0.00000000, 0.00000000, 0.00000000, 0.00000000, 0.00000000, 0.00000000, 0.00000000, 0.00000000, 0.00000000, 0.00000000, -0.69519997, -0.02060000, 0.71819997, 0.01330000, 0.01700000, -0.02800000, -0.06800000, 0.00000000, 0.00000000, 0.00000000, 0.00000000
1, 0.4100, 41, 0.00000000, 0.00000000, 0.00000000, 0.00000000, 0.00000000, 0.00000000, 0.00000000, 0.00000000, 0.00000000, 0.00000000, 0.00000000, 0.00000000, -0.69669998, -0.02080000, 0.71679997, 0.01460000, 0.00500000, -0.06700000, -0.06600000, 0.00000000, 0.00000000, 0.00000000, 0.00000000
1, 0.4200, 42, 0.00000000, 0.00000000, 0.00000000, 0.00000000, 0.00000000, 0.00000000, 0.00000000, 0.00000000, 0.00000000, 0.00000000, 0.00000000, 0.00000000, -0.69819999, -0.02100000, 0.71539998, 0.01570000, 0.00000000, -0.09100001, -0.08700000, 0.00000000, 0.00000000, 0.00000000, 0.00000000
1, 0.4300, 43, 0.00000000, 0.00000000, 0.00000000, 0.00000000, 0.00000000, 0.00000000, 0.00000000, 0.00000000, 0.00000000, 0.00000000, 0.00000000, 0.00000000, -0.69970000, -0.02120000, 0.71389997, 0.01650000, -0.01000000, -0.09600000, -0.09500001, 0.00000000, 0.00000000, 0.00000000, 0.00000000
1, 0.4400, 44, 0.00000000, 0.00000000, 0.00000000, 0.00000000, 0.00000000, 0.00000000, 0.00000000, 0.00000000, 0.00000000, 0.00000000, 0.00000000, 0.00000000, -0.70129997, -0.02130000, 0.71230000, 0.01700000, -0.01100000, -0.08200000, -0.11000001, 0.00000000, 0.00000000, 0.00000000, 0.00000000
1, 0.4500, 45, 0.00000000, 0.00000000, 0.00000000, 0.00000000, 0.00000000, 0.00000000, 0.00000000, 0.00000000, 0.00000000, 0.00000000, 0.00000000, 0.00000000, -0.70289999, -0.02140000, 0.71069998, 0.01710000, -0.00100000, -0.06400000, -0.12500000, 0.00000000, 0.00000000, 0.00000000, 0.00000000
1, 0.4600, 46, 0.00000000, 0.00000000, 0.00000000, 0.00000000, 0.00000000, 0.00000000, 0.00000000, 0.00000000, 0.00000000, 0.00000000, 0.00000000, 0.00000000, -0.70449996, -0.02140000, 0.70910001, 0.01710000, 0.00000000, -0.05800000, -0.13300000, 0.00000000, 0.00000000, 0.00000000, 0.00000000
1, 0.4700, 47, 0.00000000, 0.00000000, 0.00000000, 0.00000000, 0.00000000, 0.00000000, 0.00000000, 0.00000000, 0.00000000, 0.00000000, 0.00000000, 0.00000000, -0.70599997, -0.02150000, 0.70749998, 0.01690000, -0.00400000, -0.07000000, -0.14600001, 0.00000000, 0.00000000, 0.00000000, 0.00000000
1, 0.4800, 48, 0.00000000, 0.00000000, 0.00000000, 0.00000000, 0.00000000, 0.00000000, 0.00000000, 0.00000000, 0.00000000, 0.00000000, 0.00000000, 0.00000000, -0.70769995, -0.02160000, 0.70589995, 0.01670000, -0.00700000, -0.09300000, -0.15000001, 0.00000000, 0.00000000, 0.00000000, 0.00000000
1, 0.4900, 49, 0.00000000, 0.00000000, 0.00000000, 0.00000000, 0.00000000, 0.00000000, 0.00000000, 0.00000000, 0.00000000, 0.00000000, 0.00000000, 0.00000000, -0.70929998, -0.02160000, 0.70429999, 0.01640000, -0.00900000, -0.12100001, -0.15600000, 0.00000000, 0.00000000, 0.00000000, 0.00000000
1, 0.5000, 50, 0.00000000, 0.00000000, 0.00000000, 0.00000000, 0.00000000, 0.00000000, 0.00000000, 0.00000000, 0.00000000, 0.00000000, 0.00000000, 0.00000000, -0.71090001, -0.02170000, 0.70260000, 0.01600000, -0.01300000, -0.12600000, -0.14100000, 0.00000000, 0.00000000, 0.00000000, 0.00000000
1, 0.5100, 51, 0.00000000, 0.00000000, 0.00000000, 0.00000000, 0.00000000, 0.00000000, 0.00000000, 0.00000000, 0.00000000, 0.00000000, 0.00000000, 0.00000000, -0.71259999, -0.02180000, 0.70099998, 0.01560000, -0.01700000, -0.13800001, -0.12400001, 0.00000000, 0.00000000, 0.00000000, 0.00000000
1, 0.5200, 52, 0.00000000, 0.00000000, 0.00000000, 0.00000000, 0.00000000, 0.00000000, 0.00000000, 0.00000000, 0.00000000, 0.00000000, 0.00000000, 0.00000000, -0.71419996, -0.02200000, 0.69929999, 0.01520000, -0.01300000, -0.14500001, -0.11700001, 0.00000000, 0.00000000, 0.00000000, 0.00000000
1, 0.5300, 53, 0.00000000, 0.00000000, 0.00000000, 0.00000000, 0.00000000, 0.00000000, 0.00000000, 0.00000000, 0.00000000, 0.00000000, 0.00000000, 0.00000000, -0.71590000, -0.02210000, 0.69760001, 0.01450000, -0.01500000, -0.12100001, -0.11400001, 0.00000000, 0.00000000, 0.00000000, 0.00000000
1, 0.5400, 54, 0.00000000, 0.00000000, 0.00000000, 0.00000000, 0.00000000, 0.00000000, 0.00000000, 0.00000000, 0.00000000, 0.00000000, 0.00000000, 0.00000000, -0.71749997, -0.02240000, 0.69589996, 0.01350000, -0.01700000, -0.04900000, -0.12400001, 0.00000000, 0.00000000, 0.00000000, 0.00000000
1, 0.5500, 55, 0.00000000, 0.00000000, 0.00000000, 0.00000000, 0.00000000, 0.00000000, 0.00000000, 0.00000000, 0.00000000, 0.00000000, 0.00000000, 0.00000000, -0.71919996, -0.02290000, 0.69419998, 0.01250000, -0.02600000, 0.04800000, -0.13200000, 0.00000000, 0.00000000, 0.00000000, 0.00000000
1, 0.5600, 56, 0.00000000, 0.00000000, 0.00000000, 0.00000000, 0.00000000, 0.00000000, 0.00000000, 0.00000000, 0.00000000, 0.00000000, 0.00000000, 0.00000000, -0.72109997, -0.02370000, 0.69229996, 0.01160000, -0.03300000, 0.10700001, -0.14300001, 0.00000000, 0.00000000, 0.00000000, 0.00000000
1, 0.5700, 57, 0.00000000, 0.00000000, 0.00000000, 0.00000000, 0.00000000, 0.00000000, 0.00000000, 0.00000000, 0.00000000, 0.00000000, 0.00000000, 0.00000000, -0.72299999, -0.02480000, 0.69019997, 0.01110000, -0.01800000, 0.12700000, -0.15600000, 0.00000000, 0.00000000, 0.00000000, 0.00000000
1, 0.5800, 58, 0.00000000, 0.00000000, 0.00000000, 0.00000000, 0.00000000, 0.00000000, 0.00000000, 0.00000000, 0.00000000, 0.00000000, 0.00000000, 0.00000000, -0.72499996, -0.02620000, 0.68809998, 0.01120000, 0.00400000, 0.10100000, -0.17000000, 0.00000000, 0.00000000, 0.00000000, 0.00000000
1, 0.5900, 59, 0.00000000, 0.00000000, 0.00000000, 0.00000000, 0.00000000, 0.00000000, 0.00000000, 0.00000000, 0.00000000, 0.00000000, 0.00000000, 0.00000000, -0.72700000, -0.02780000, 0.68589997, 0.01140000, 0.00900000, 0.06900001, -0.16800001, 0.00000000, 0.00000000, 0.00000000, 0.00000000
1, 0.6000, 60, 0.00000000, 0.00000000, 0.00000000, 0.00000000, 0.00000000, 0.00000000, 0.00000000, 0.00000000, 0.00000000, 0.00000000, 0.00000000, 0.00000000, -0.72909999, -0.02960000, 0.68360001, 0.01190000, 0.01100000, 0.04700000, -0.16800001, 0.00000000, 0.00000000, 0.00000000, 0.00000000
1, 0.6100, 61, 0.00000000, 0.00000000, 0.00000000, 0.00000000, 0.00000000, 0.00000000, 0.00000000, 0.00000000, 0.00000000, 0.00000000, 0.00000000, 0.00000000, -0.73130000, -0.03140000, 0.68110001, 0.01240000, 0.00100000, 0.02000000, -0.16400000, 0.00000000, 0.00000000, 0.00000000, 0.00000000
1, 0.6200, 62, 0.00000000, 0.00000000, 0.00000000, 0.00000000, 0.00000000, 0.00000000, 0.00000000, 0.00000000, 0.00000000, 0.00000000, 0.00000000, 0.00000000, -0.73359996, -0.03330000, 0.67859995, 0.01280000, -0.00600000, 0.00300000, -0.17700000, 0.00000000, 0.00000000, 0.00000000, 0.00000000
1, 0.6300, 63, 0.00000000, 0.00000000, 0.00000000, 0.00000000, 0.00000000, 0.00000000, 0.00000000, 0.00000000, 0.00000000, 0.00000000, 0.00000000, 0.00000000, -0.73589998, -0.03510000, 0.67589998, 0.01300000, -0.01900000, -0.02400000, -0.18400002, 0.00000000, 0.00000000, 0.00000000, 0.00000000
1, 0.6400, 64, 0.00000000, 0.00000000, 0.00000000, 0.00000000, 0.00000000, 0.00000000, 0.00000000, 0.00000000, 0.00000000, 0.00000000, 0.00000000, 0.00000000, -0.73839998, -0.03670000, 0.67320001, 0.01290000, -0.03800000, -0.02000000, -0.15500000, 0.00000000, 0.00000000, 0.00000000, 0.00000000
1, 0.6500, 65, 0.00000000, 0.00000000, 0.00000000, 0.00000000, 0.00000000, 0.00000000, 0.00000000, 0.00000000, 0.00000000, 0.00000000, 0.00000000, 0.00000000, -0.74089998, -0.03810000, 0.67039996, 0.01270000, -0.03400000, 0.01900000, -0.16100001, 0.00000000, 0.00000000, 0.00000000, 0.00000000
1, 0.6600, 66, 0.00000000, 0.00000000, 0.00000000, 0.00000000, 0.00000000, 0.00000000, 0.00000000, 0.00000000, 0.00000000, 0.00000000, 0.00000000, 0.00000000, -0.74339998, -0.03920000, 0.66749996, 0.01230000, -0.03700000, 0.07200000, -0.14800000, 0.00000000, 0.00000000, 0.00000000, 0.00000000
1, 0.6700, 67, 0.00000000, 0.00000000, 0.00000000, 0.00000000, 0.00000000, 0.00000000, 0.00000000, 0.00000000, 0.00000000, 0.00000000, 0.00000000, 0.00000000, -0.74589998, -0.04010000, 0.66459996, 0.01180000, -0.05300000, 0.11200000, -0.13600001, 0.00000000, 0.00000000, 0.00000000, 0.00000000
1, 0.6800, 68, 0.00000000, 0.00000000, 0.00000000, 0.00000000, 0.00000000, 0.00000000, 0.00000000, 0.00000000, 0.00000000, 0.00000000, 0.00000000, 0.00000000, -0.74839997, -0.04110000, 0.66179997, 0.01150000, -0.08500000, 0.13100001, -0.11200000, 0.00000000, 0.00000000, 0.00000000, 0.00000000
1, 0.6900, 69, 0.00000000, 0.00000000, 0.00000000, 0.00000000, 0.00000000, 0.00000000, 0.00000000, 0.00000000, 0.00000000, 0.00000000, 0.00000000, 0.00000000, -0.75079995, -0.04190000, 0.65899998, 0.01120000, -0.12000000, 0.15600000, -0.09500001, 0.00000000, 0.00000000, 0.00000000, 0.00000000
1, 0.7000, 70, 0.00000000, 0.00000000, 0.00000000, 0.00000000, 0.00000000, 0.00000000, 0.00000000, 0.00000000, 0.00000000, 0.00000000, 0.00000000, 0.00000000, -0.75299996, -0.04270000, 0.65639997, 0.01100000, -0.14900000, 0.20100001, -0.09900001, 0.00000000, 0.00000000, 0.00000000, 0.00000000
1, 0.7100, 71, 0.00000000, 0.00000000, 0.00000000, 0.00000000, 0.00000000, 0.00000000, 0.00000000, 0.00000000, 0.00000000, 0.00000000, 0.00000000, 0.00000000, -0.75509995, -0.04360000, 0.65399998, 0.01120000, -0.18300001, 0.24700001, -0.07600001, 0.00000000, 0.00000000, 0.00000000, 0.00000000
1, 0.7200, 72, 0.00000000, 0.00000000, 0.00000000, 0.00000000, 0.00000000, 0.00000000, 0.00000000, 0.00000000, 0.00000000, 0.00000000, 0.00000000, 0.00000000, -0.75699997, -0.04480000, 0.65160000, 0.01190000, -0.23300001, 0.28700000, -0.04400000, 0.00000000, 0.00000000, 0.00000000, 0.00000000
1, 0.7300, 73, 0.00000000, 0.00000000, 0.00000000, 0.00000000, 0.00000000, 0.00000000, 0.00000000, 0.00000000, 0.00000000, 0.00000000, 0.00000000, 0.00000000, -0.75889999, -0.04640000, 0.64929998, 0.01320000, -0.26300001, 0.33400002, -0.06000000, 0.00000000, 0.00000000, 0.00000000, 0.00000000
1, 0.7400, 74, 0.00000000, 0.00000000, 0.00000000, 0.00000000, 0.00000000, 0.00000000, 0.00000000, 0.00000000, 0.00000000, 0.00000000, 0.00000000, 0.00000000, -0.76049995, -0.04880000, 0.64719999, 0.01570000, -0.24700001, 0.36000001, -0.08600000, 0.00000000, 0.00000000, 0.00000000, 0.00000000
1, 0.7500, 75, 0.00000000, 0.00000000, 0.00000000, 0.00000000, 0.00000000, 0.00000000, 0.00000000, 0.00000000, 0.00000000, 0.00000000, 0.00000000, 0.00000000, -0.76179999, -0.05160000, 0.64539999, 0.01900000, -0.22200002, 0.35200003, -0.12300000, 0.00000000, 0.00000000, 0.00000000, 0.00000000
1, 0.7600, 76, 0.00000000, 0.00000000, 0.00000000, 0.00000000, 0.00000000, 0.00000000, 0.00000000, 0.00000000, 0.00000000, 0.00000000, 0.00000000, 0.00000000, -0.76289999, -0.05480000, 0.64370000, 0.02280000, -0.18700001, 0.33700001, -0.14600001, 0.00000000, 0.00000000, 0.00000000, 0.00000000
1, 0.7700, 77, 0.00000000, 0.00000000, 0.00000000, 0.00000000, 0.00000000, 0.00000000, 0.00000000, 0.00000000, 0.00000000, 0.00000000, 0.00000000, 0.00000000, -0.76389998, -0.05820000, 0.64209998, 0.02720000, -0.15400001, 0.30800003, -0.15300001, 0.00000000, 0.00000000, 0.00000000, 0.00000000
1, 0.7800, 78, 0.00000000, 0.00000000, 0.00000000, 0.00000000, 0.00000000, 0.00000000, 0.00000000, 0.00000000, 0.00000000, 0.00000000, 0.00000000, 0.00000000, -0.76479995, -0.06150000, 0.64050001, 0.03170000, -0.11300001, 0.29200003, -0.16100001, 0.00000000, 0.00000000, 0.00000000, 0.00000000
1, 0.7900, 79, 0.00000000, 0.00000000, 0.00000000, 0.00000000, 0.00000000, 0.00000000, 0.00000000, 0.00000000, 0.00000000, 0.00000000, 0.00000000, 0.00000000, -0.76569998, -0.06439999, 0.63879997, 0.03610000, -0.07700001, 0.25400001, -0.15300001, 0.00000000, 0.00000000, 0.00000000, 0.00000000
1, 0.8000, 80, 0.00000000, 0.00000000, 0.00000000, 0.00000000, 0.00000000, 0.00000000, 0.00000000, 0.00000000, 0.00000000, 0.00000000, 0.00000000, 0.00000000, -0.76690000, -0.06680000, 0.63690001, 0.04010000, -0.04000000, 0.20700002, -0.16200000, 0.00000000, 0.00000000, 0.00000000, 0.00000000
1, 0.8100, 81, 0.00000000, 0.00000000, 0.00000000, 0.00000000, 0.00000000, 0.00000000, 0.00000000, 0.00000000, 0.00000000, 0.00000000, 0.00000000, 0.00000000, -0.76819998, -0.06890000, 0.63479996, 0.04370000, -0.00400000, 0.18900001, -0.20800000, 0.00000000, 0.00000000, 0.00000000, 0.00000000
1, 0.8200, 82, 0.00000000, 0.00000000, 0.00000000, 0.00000000, 0.00000000, 0.00000000, 0.00000000, 0.00000000, 0.00000000, 0.00000000, 0.00000000, 0.00000000, -0.76949996, -0.07040000, 0.63279998, 0.04690000, 0.05800000, 0.19300000, -0.39700001, 0.00000000, 0.00000000, 0.00000000, 0.00000000
1, 0.8300, 83, 0.00000000, 0.00000000, 0.00000000, 0.00000000, 0.00000000, 0.00000000, 0.00000000, 0.00000000, 0.00000000, 0.00000000, 0.00000000, 0.00000000, -0.77019995, -0.07110000, 0.63169998, 0.04960000, 0.14700000, 0.24200001, -0.65400004, 0.00000000, 0.00000000, 0.00000000, 0.00000000
1, 0.8400, 84, 0.00000000, 0.00000000, 0.00000000, 0.00000000, 0.00000000, 0.00000000, 0.00000000, 0.00000000, 0.00000000, 0.00000000, 0.00000000, 0.00000000, -0.77029997, -0.07170000, 0.63139999, 0.05200000, 0.20100001, 0.29400000, -0.70700002, 0.00000000, 0.00000000, 0.00000000, 0.00000000
1, 0.8500, 85, 0.00000000, 0.00000000, 0.00000000, 0.00000000, 0.00000000, 0.00000000, 0.00000000, 0.00000000, 0.00000000, 0.00000000, 0.00000000, 0.00000000, -0.77019995, -0.07310000, 0.63110000, 0.05490000, 0.22000001, 0.27900001, -0.66800004, 0.00000000, 0.00000000, 0.00000000, 0.00000000
1, 0.8600, 86, 0.00000000, 0.00000000, 0.00000000, 0.00000000, 0.00000000, 0.00000000, 0.00000000, 0.00000000, 0.00000000, 0.00000000, 0.00000000, 0.00000000, -0.77039999, -0.07669999, 0.63000000, 0.05910000, 0.14600001, 0.20000000, -0.53600001, 0.00000000, 0.00000000, 0.00000000, 0.00000000
1, 0.8700, 87, 0.00000000, 0.00000000, 0.00000000, 0.00000000, 0.00000000, 0.00000000, 0.00000000, 0.00000000, 0.00000000, 0.00000000, 0.00000000, 0.00000000, -0.77120000, -0.08240000, 0.62790000, 0.06430000, 0.04100000, 0.17200001, -0.42000002, 0.00000000, 0.00000000, 0.00000000, 0.00000000
1, 0.8800, 88, 0.00000000, 0.00000000, 0.00000000, 0.00000000, 0.00000000, 0.00000000, 0.00000000, 0.00000000, 0.00000000, 0.00000000, 0.00000000, 0.00000000, -0.77179998, -0.09050000, 0.62529999, 0.07090000, -0.01100000, 0.18000001, -0.26500002, 0.00000000, 0.00000000, 0.00000000, 0.00000000
1, 0.8900, 89, 0.00000000, 0.00000000, 0.00000000, 0.00000000, 0.00000000, 0.00000000, 0.00000000, 0.00000000, 0.00000000, 0.00000000, 0.00000000, 0.00000000, -0.77160001, -0.10089999, 0.62299997, 0.07850000, 0.06300000, 0.29900002, -0.21600001, 0.00000000, 0.00000000, 0.00000000, 0.00000000
1, 0.9000, 90, 0.00000000, 0.00000000, 0.00000000, 0.00000000, 0.00000000, 0.00000000, 0.00000000, 0.00000000, 0.00000000, 0.00000000, 0.00000000, 0.00000000, -0.77019995, -0.11180000, 0.62189996, 0.08620000, 0.16700001, 0.43500003, -0.25000000, 0.00000000, 0.00000000, 0.00000000, 0.00000000
1, 0.9100, 91, 0.00000000, 0.00000000, 0.00000000, 0.00000000, 0.00000000, 0.00000000, 0.00000000, 0.00000000, 0.00000000, 0.00000000, 0.00000000, 0.00000000, -0.76760000, -0.12260000, 0.62199998, 0.09350000, 0.23000000, 0.45000002, -0.38000003, 0.00000000, 0.00000000, 0.00000000, 0.00000000
1, 0.9200, 92, 0.00000000, 0.00000000, 0.00000000, 0.00000000, 0.00000000, 0.00000000, 0.00000000, 0.00000000, 0.00000000, 0.00000000, 0.00000000, 0.00000000, -0.76409996, -0.13339999, 0.62279999, 0.10130000, 0.22200002, 0.37700000, -0.45600003, 0.00000000, 0.00000000, 0.00000000, 0.00000000
1, 0.9300, 93, 0.00000000, 0.00000000, 0.00000000, 0.00000000, 0.00000000, 0.00000000, 0.00000000, 0.00000000, 0.00000000, 0.00000000, 0.00000000, 0.00000000, -0.76010001, -0.14410000, 0.62390000, 0.10990000, 0.20000000, 0.27900001, -0.50700003, 0.00000000, 0.00000000, 0.00000000, 0.00000000
1, 0.9400, 94, 0.00000000, 0.00000000, 0.00000000, 0.00000000, 0.00000000, 0.00000000, 0.00000000, 0.00000000, 0.00000000, 0.00000000, 0.00000000, 0.00000000, -0.75559998, -0.15490000, 0.62500000, 0.11939999, 0.20400001, 0.18900001, -0.54300004, 0.00000000, 0.00000000, 0.00000000, 0.00000000
1, 0.9500, 95, 0.00000000, 0.00000000, 0.00000000, 0.00000000, 0.00000000, 0.00000000, 0.00000000, 0.00000000, 0.00000000, 0.00000000, 0.00000000, 0.00000000, -0.75089997, -0.16560000, 0.62589997, 0.12940000, 0.17300001, 0.14000000, -0.52800000, 0.00000000, 0.00000000, 0.00000000, 0.00000000
1, 0.9600, 96, 0.00000000, 0.00000000, 0.00000000, 0.00000000, 0.00000000, 0.00000000, 0.00000000, 0.00000000, 0.00000000, 0.00000000, 0.00000000, 0.00000000, -0.74599999, -0.17629999, 0.62659997, 0.14010000, 0.11000001, 0.06700000, -0.46300003, 0.00000000, 0.00000000, 0.00000000, 0.00000000
1, 0.9700, 97, 0.00000000, 0.00000000, 0.00000000, 0.00000000, 0.00000000, 0.00000000, 0.00000000, 0.00000000, 0.00000000, 0.00000000, 0.00000000, 0.00000000, -0.74089998, -0.18670000, 0.62709999, 0.15099999, 0.03700000, 0.02200000, -0.38300002, 0.00000000, 0.00000000, 0.00000000, 0.00000000
1, 0.9800, 98, 0.00000000, 0.00000000, 0.00000000, 0.00000000, 0.00000000, 0.00000000, 0.00000000, 0.00000000, 0.00000000, 0.00000000, 0.00000000, 0.00000000, -0.73559999, -0.19659999, 0.62759995, 0.16180000, -0.03100000, -0.00400000, -0.31600001, 0.00000000, 0.00000000, 0.00000000, 0.00000000
1, 0.9900, 99, 0.00000000, 0.00000000, 0.00000000, 0.00000000, 0.00000000, 0.00000000, 0.00000000, 0.00000000, 0.00000000, 0.00000000, 0.00000000, 0.00000000, -0.72999996, -0.20559999, 0.62849998, 0.17199999, -0.09100001, -0.03500000, -0.23800001, 0.00000000, 0.00000000, 0.00000000, 0.00000000
1, 1.0000, 100, 0.00000000, 0.00000000, 0.00000000, 0.00000000, 0.00000000, 0.00000000, 0.00000000, 0.00000000, 0.00000000, 0.00000000, 0.00000000, 0.00000000, -0.72409999, -0.21390000, 0.63000000, 0.18159999, -0.13200000, -0.09400000, -0.20000000, 0.00000000, 0.00000000, 0.00000000, 0.00000000
1, 1.0100, 101, 0.00000000, 0.00000000, 0.00000000, 0.00000000, 0.00000000, 0.00000000, 0.00000000, 0.00000000, 0.00000000, 0.00000000, 0.00000000, 0.00000000, -0.71770000, -0.22170000, 0.63180000, 0.19080000, -0.14900000, -0.10500000, -0.16200000, 0.00000000, 0.00000000, 0.00000000, 0.00000000
1, 1.0200, 102, 0.00000000, 0.00000000, 0.00000000, 0.00000000, 0.00000000, 0.00000000, 0.00000000, 0.00000000, 0.00000000, 0.00000000, 0.00000000, 0.00000000, -0.71120000, -0.22870000, 0.63389999, 0.19970000, -0.14400001, -0.08400001, -0.12600000, 0.00000000, 0.00000000, 0.00000000, 0.00000000
1, 1.0300, 103, 0.00000000, 0.00000000, 0.00000000, 0.00000000, 0.00000000, 0.00000000, 0.00000000, 0.00000000, 0.00000000, 0.00000000, 0.00000000, 0.00000000, -0.70440000, -0.23529999, 0.63629997, 0.20840000, -0.13800001, -0.07200000, -0.10600001, 0.00000000, 0.00000000, 0.00000000, 0.00000000
1, 1.0400, 104, 0.00000000, 0.00000000, 0.00000000, 0.00000000, 0.00000000, 0.00000000, 0.00000000, 0.00000000, 0.00000000, 0.00000000, 0.00000000, 0.00000000, -0.69739997, -0.24149999, 0.63870001, 0.21730000, -0.15700001, -0.07600001, -0.07800000, 0.00000000, 0.00000000, 0.00000000, 0.00000000
1, 1.0500, 105, 0.00000000, 0.00000000, 0.00000000, 0.00000000, 0.00000000, 0.00000000, 0.00000000, 0.00000000, 0.00000000, 0.00000000, 0.00000000, 0.00000000, -0.69019997, -0.24730000, 0.64120001, 0.22600000, -0.18400002, -0.10300001, -0.00900000, 0.00000000, 0.00000000, 0.00000000, 0.00000000
1, 1.0600, 106, 0.00000000, 0.00000000, 0.00000000, 0.00000000, 0.00000000, 0.00000000, 0.00000000, 0.00000000, 0.00000000, 0.00000000, 0.00000000, 0.00000000, -0.68309999, -0.25270000, 0.64370000, 0.23469999, -0.20200001, -0.11900000, 0.06200000, 0.00000000, 0.00000000, 0.00000000, 0.00000000
1, 1.0700, 107, 0.00000000, 0.00000000, 0.00000000, 0.00000000, 0.00000000, 0.00000000, 0.00000000, 0.00000000, 0.00000000, 0.00000000, 0.00000000, 0.00000000, -0.67589998, -0.25749999, 0.64609998, 0.24329999, -0.21800001, -0.13500001, 0.11300001, 0.00000000, 0.00000000, 0.00000000, 0.00000000
1, 1.0800, 108, 0.00000000, 0.00000000, 0.00000000, 0.00000000, 0.00000000, 0.00000000, 0.00000000, 0.00000000, 0.00000000, 0.00000000, 0.00000000, 0.00000000, -0.66889995, -0.26170000, 0.64849997, 0.25169998, -0.21100001, -0.14900000, 0.17200001, 0.00000000, 0.00000000, 0.00000000, 0.00000000
1, 1.0900, 109, 0.00000000, 0.00000000, 0.00000000, 0.00000000, 0.00000000, 0.00000000, 0.00000000, 0.00000000, 0.00000000, 0.00000000, 0.00000000, 0.00000000, -0.66189998, -0.26510000, 0.65099996, 0.26010001, -0.19600001, -0.15400001, 0.22400001, 0.00000000, 0.00000000, 0.00000000, 0.00000000
1, 1.1000, 110, 0.00000000, 0.00000000, 0.00000000, 0.00000000, 0.00000000, 0.00000000, 0.00000000, 0.00000000, 0.00000000, 0.00000000, 0.00000000, 0.00000000, -0.65499997, -0.26780000, 0.65340000, 0.26850000, -0.17700000, -0.16000001, 0.27700001, 0.00000000, 0.00000000, 0.00000000, 0.00000000
1, 1.1100, 111, 0.00000000, 0.00000000, 0.00000000, 0.00000000, 0.00000000, 0.00000000, 0.00000000, 0.00000000, 0.00000000, 0.00000000, 0.00000000, 0.00000000, -0.64840001, -0.26969999, 0.65569997, 0.27680001, -0.16700001, -0.17700000, 0.30200002, 0.00000000, 0.00000000, 0.00000000, 0.00000000
1, 1.1200, 112, 0.00000000, 0.00000000, 0.00000000, 0.00000000, 0.00000000, 0.00000000, 0.00000000, 0.00000000, 0.00000000, 0.00000000, 0.00000000, 0.00000000, -0.64209998, -0.27100000, 0.65789998, 0.28509998, -0.16100001, -0.18400002, 0.31300002, 0.00000000, 0.00000000, 0.00000000, 0.00000000
1, 1.1300, 113, 0.00000000, 0.00000000, 0.00000000, 0.00000000, 0.00000000, 0.00000000, 0.00000000, 0.00000000, 0.00000000, 0.00000000, 0.00000000, 0.00000000, -0.63599998, -0.27169999, 0.65999997, 0.29310000, -0.16000001, -0.18800001, 0.31800002, 0.00000000, 0.00000000, 0.00000000, 0.00000000
1, 1.1400, 114, 0.00000000, 0.00000000, 0.00000000, 0.00000000, 0.00000000, 0.00000000, 0.00000000, 0.00000000, 0.00000000, 0.00000000, 0.00000000, 0.00000000, -0.63010001, -0.27169999, 0.66209996, 0.30100000, -0.16200000, -0.18200001, 0.31500003, 0.00000000, 0.00000000, 0.00000000, 0.00000000
1, 1.1500, 115, 0.00000000, 0.00000000, 0.00000000, 0.00000000, 0.00000000, 0.00000000, 0.00000000, 0.00000000, 0.00000000, 0.00000000, 0.00000000, 0.00000000, -0.62439996, -0.27109998, 0.66420001, 0.30879998, -0.17100000, -0.18400002, 0.31100002, 0.00000000, 0.00000000, 0.00000000, 0.00000000
1, 1.1600, 116, 0.00000000, 0.00000000, 0.00000000, 0.00000000, 0.00000000, 0.00000000, 0.00000000, 0.00000000, 0.00000000, 0.00000000, 0.00000000, 0.00000000, -0.61899996, -0.26980001, 0.66619998, 0.31619999, -0.16900001, -0.18000001, 0.29700002, 0.00000000, 0.00000000, 0.00000000, 0.00000000
1, 1.1700, 117, 0.00000000, 0.00000000, 0.00000000, 0.00000000, 0.00000000, 0.00000000, 0.00000000, 0.00000000, 0.00000000, 0.00000000, 0.00000000, 0.00000000, -0.61390001, -0.26800001, 0.66819996, 0.32339999, -0.16100001, -0.17800000, 0.29200003, 0.00000000, 0.00000000, 0.00000000, 0.00000000
1, 1.1800, 118, 0.00000000, 0.00000000, 0.00000000, 0.00000000, 0.00000000, 0.00000000, 0.00000000, 0.00000000, 0.00000000, 0.00000000, 0.00000000, 0.00000000, -0.60899997, -0.26580000, 0.67009997, 0.33049998, -0.14400001, -0.18600000, 0.28600001, 0.00000000, 0.00000000, 0.00000000, 0.00000000
1, 1.1900, 119, 0.00000000, 0.00000000, 0.00000000, 0.00000000, 0.00000000, 0.00000000, 0.00000000, 0.00000000, 0.00000000, 0.00000000, 0.00000000, 0.00000000, -0.60429996, -0.26330000, 0.67179996, 0.33750001, -0.10300001, -0.20800000, 0.27500001, 0.00000000, 0.00000000, 0.00000000, 0.00000000
1, 1.2000, 120, 0.00000000, 0.00000000, 0.00000000, 0.00000000, 0.00000000, 0.00000000, 0.00000000, 0.00000000, 0.00000000, 0.00000000, 0.00000000, 0.00000000, -0.59990001, -0.26060000, 0.67339998, 0.34439999, -0.06300000, -0.22800002, 0.27000001, 0.00000000, 0.00000000, 0.00000000, 0.00000000
1, 1.2100, 121, 0.00000000, 0.00000000, 0.00000000, 0.00000000, 0.00000000, 0.00000000, 0.00000000, 0.00000000, 0.00000000, 0.00000000, 0.00000000, 0.00000000, -0.59569997, -0.25759998, 0.67469996, 0.35119998, -0.01500000, -0.26000002, 0.26300001, 0.00000000, 0.00000000, 0.00000000, 0.00000000
1, 1.2200, 122, 0.00000000, 0.00000000, 0.00000000, 0.00000000, 0.00000000, 0.00000000, 0.00000000, 0.00000000, 0.00000000, 0.00000000, 0.00000000, 0.00000000, -0.59169996, -0.25459999, 0.67579997, 0.35789999, 0.03200000, -0.28900000, 0.24500000, 0.00000000, 0.00000000, 0.00000000, 0.00000000
1, 1.2300, 123, 0.00000000, 0.00000000, 0.00000000, 0.00000000, 0.00000000, 0.00000000, 0.00000000, 0.00000000, 0.00000000, 0.00000000, 0.00000000, 0.00000000, -0.58789998, -0.25160000, 0.67689997, 0.36429998, 0.06800000, -0.32400000, 0.22300000, 0.00000000, 0.00000000, 0.00000000, 0.00000000
1, 1.2400, 124, 0.00000000, 0.00000000, 0.00000000, 0.00000000, 0.00000000, 0.00000000, 0.00000000, 0.00000000, 0.00000000, 0.00000000, 0.00000000, 0.00000000, -0.58419997, -0.24839999, 0.67789996, 0.37039998, 0.10200001, -0.33500001, 0.20000000, 0.00000000, 0.00000000, 0.00000000, 0.00000000
1, 1.2500, 125, 0.00000000, 0.00000000, 0.00000000, 0.00000000, 0.00000000, 0.00000000, 0.00000000, 0.00000000, 0.00000000, 0.00000000, 0.00000000, 0.00000000, -0.58069998, -0.24519999, 0.67899996, 0.37610000, 0.11400001, -0.35200003, 0.17600001, 0.00000000, 0.00000000, 0.00000000, 0.00000000
1, 1.2600, 126, 0.00000000, 0.00000000, 0.00000000, 0.00000000, 0.00000000, 0.00000000, 0.00000000, 0.00000000, 0.00000000, 0.00000000, 0.00000000, 0.00000000, -0.57739997, -0.24200000, 0.68000001, 0.38139999, 0.12100001, -0.36800003, 0.15100001, 0.00000000, 0.00000000, 0.00000000, 0.00000000
1, 1.2700, 127, 0.00000000, 0.00000000, 0.00000000, 0.00000000, 0.00000000, 0.00000000, 0.00000000, 0.00000000, 0.00000000, 0.00000000, 0.00000000, 0.00000000, -0.57429999, -0.23879999, 0.68110001, 0.38619998, 0.12700000, -0.37000000, 0.11100001, 0.00000000, 0.00000000, 0.00000000, 0.00000000
1, 1.2800, 128, 0.00000000, 0.00000000, 0.00000000, 0.00000000, 0.00000000, 0.00000000, 0.00000000, 0.00000000, 0.00000000, 0.00000000, 0.00000000, 0.00000000, -0.57120001, -0.23570000, 0.68239999, 0.39029998, 0.14100000, -0.36900002, 0.06300000, 0.00000000, 0.00000000, 0.00000000, 0.00000000
1, 1.2900, 129, 0.00000000, 0.00000000, 0.00000000, 0.00000000, 0.00000000, 0.00000000, 0.00000000, 0.00000000, 0.00000000, 0.00000000, 0.00000000, 0.00000000, -0.56819999, -0.23259999, 0.68390000, 0.39379999, 0.15000001, -0.35600001, 0.02300000, 0.00000000, 0.00000000, 0.00000000, 0.00000000
1, 1.3000, 130, 0.00000000, 0.00000000, 0.00000000, 0.00000000, 0.00000000, 0.00000000, 0.00000000, 0.00000000, 0.00000000, 0.00000000, 0.00000000, 0.00000000, -0.56519997, -0.22950000, 0.68589997, 0.39640000, 0.16600001, -0.31200001, 0.01500000, 0.00000000, 0.00000000, 0.00000000, 0.00000000
1, 1.3100, 131, 0.00000000, 0.00000000, 0.00000000, 0.00000000, 0.00000000, 0.00000000, 0.00000000, 0.00000000, 0.00000000, 0.00000000, 0.00000000, 0.00000000, -0.56229997, -0.22639999, 0.68829995, 0.39829999, 0.16700001, -0.28900000, 0.03000000, 0.00000000, 0.00000000, 0.00000000, 0.00000000
1, 1.3200, 132, 0.00000000, 0.00000000, 0.00000000, 0.00000000, 0.00000000, 0.00000000, 0.00000000, 0.00000000, 0.00000000, 0.00000000, 0.00000000, 0.00000000, -0.55939996, -0.22319999, 0.69099998, 0.39949998, 0.16300000, -0.26400000, 0.06700000, 0.00000000, 0.00000000, 0.00000000, 0.00000000
1, 1.3300, 133, 0.00000000, 0.00000000, 0.00000000, 0.00000000, 0.00000000, 0.00000000, 0.00000000, 0.00000000, 0.00000000, 0.00000000, 0.00000000, 0.00000000, -0.55659997, -0.22010000, 0.69400001, 0.39989999, 0.16500001, -0.24600001, 0.10900000, 0.00000000, 0.00000000, 0.00000000, 0.00000000
1, 1.3400, 134, 0.00000000, 0.00000000, 0.00000000, 0.00000000, 0.00000000, 0.00000000, 0.00000000, 0.00000000, 0.00000000, 0.00000000, 0.00000000, 0.00000000, -0.55399996, -0.21689999, 0.69729996, 0.39960000, 0.14900000, -0.25300002, 0.15000001, 0.00000000, 0.00000000, 0.00000000, 0.00000000
1, 1.3500, 135, 0.00000000, 0.00000000, 0.00000000, 0.00000000, 0.00000000, 0.00000000, 0.00000000, 0.00000000, 0.00000000, 0.00000000, 0.00000000, 0.00000000, -0.55159998, -0.21380000, 0.70069999, 0.39859998, 0.13900001, -0.26600000, 0.15000001, 0.00000000, 0.00000000, 0.00000000, 0.00000000
1, 1.3600, 136, 0.00000000, 0.00000000, 0.00000000, 0.00000000, 0.00000000, 0.00000000, 0.00000000, 0.00000000, 0.00000000, 0.00000000, 0.00000000, 0.00000000, -0.54909998, -0.21079999, 0.70459998, 0.39679998, 0.12700000, -0.23100001, 0.10500000, 0.00000000, 0.00000000, 0.00000000, 0.00000000
1, 1.3700, 137, 0.00000000, 0.00000000, 0.00000000, 0.00000000, 0.00000000, 0.00000000, 0.00000000, 0.00000000, 0.00000000, 0.00000000, 0.00000000, 0.00000000, -0.54649997, -0.20750000, 0.70910001, 0.39399999, 0.11800001, -0.19000001, 0.05900000, 0.00000000, 0.00000000, 0.00000000, 0.00000000
1, 1.3800, 138, 0.00000000, 0.00000000, 0.00000000, 0.00000000, 0.00000000, 0.00000000, 0.00000000, 0.00000000, 0.00000000, 0.00000000, 0.00000000, 0.00000000, -0.54369998, -0.20389999, 0.71429998, 0.39039999, 0.11400001, -0.14300001, 0.01300000, 0.00000000, 0.00000000, 0.00000000, 0.00000000
1, 1.3900, 139, 0.00000000, 0.00000000, 0.00000000, 0.00000000, 0.00000000, 0.00000000, 0.00000000, 0.00000000, 0.00000000, 0.00000000, 0.00000000, 0.00000000, -0.54089999, -0.19970000, 0.71989995, 0.38609999, 0.11700001, -0.10600001, -0.01900000, 0.00000000, 0.00000000, 0.00000000, 0.00000000
1, 1.4000, 140, 0.00000000, 0.00000000, 0.00000000, 0.00000000, 0.00000000, 0.00000000, 0.00000000, 0.00000000, 0.00000000, 0.00000000, 0.00000000, 0.00000000, -0.53759998, -0.19509999, 0.72630000, 0.38110000, 0.07600001, -0.07100000, -0.02900000, 0.00000000, 0.00000000, 0.00000000, 0.00000000
1, 1.4100, 141, 0.00000000, 0.00000000, 0.00000000, 0.00000000, 0.00000000, 0.00000000, 0.00000000, 0.00000000, 0.00000000, 0.00000000, 0.00000000, 0.00000000, -0.53459996, -0.18990000, 0.73289996, 0.37529999, 0.09100001, -0.03300000, -0.03000000, 0.00000000, 0.00000000, 0.00000000, 0.00000000
1, 1.4200, 142, 0.00000000, 0.00000000, 0.00000000, 0.00000000, 0.00000000, 0.00000000, 0.00000000, 0.00000000, 0.00000000, 0.00000000, 0.00000000, 0.00000000, -0.53160000, -0.18480000, 0.73960000, 0.36879998, 0.06100000, 0.01400000, 0.01700000, 0.00000000, 0.00000000, 0.00000000, 0.00000000
1, 1.4300, 143, 0.00000000, 0.00000000, 0.00000000, 0.00000000, 0.00000000, 0.00000000, 0.00000000, 0.00000000, 0.00000000, 0.00000000, 0.00000000, 0.00000000, -0.52859998, -0.18030000, 0.74599999, 0.36260000, -0.01700000, 0.08100000, 0.07400000, 0.00000000, 0.00000000, 0.00000000, 0.00000000
1, 1.4400, 144, 0.00000000, 0.00000000, 0.00000000, 0.00000000, 0.00000000, 0.00000000, 0.00000000, 0.00000000, 0.00000000, 0.00000000, 0.00000000, 0.00000000, -0.52560002, -0.17690000, 0.75139999, 0.35709998, -0.06400000, 0.14900000, 0.12900001, 0.00000000, 0.00000000, 0.00000000, 0.00000000
1, 1.4500, 145, 0.00000000, 0.00000000, 0.00000000, 0.00000000, 0.00000000, 0.00000000, 0.00000000, 0.00000000, 0.00000000, 0.00000000, 0.00000000, 0.00000000, -0.52309996, -0.17449999, 0.75589997, 0.35259998, -0.11300001, 0.16300000, 0.17100000, 0.00000000, 0.00000000, 0.00000000, 0.00000000
1, 1.4600, 146, 0.00000000, 0.00000000, 0.00000000, 0.00000000, 0.00000000, 0.00000000, 0.00000000, 0.00000000, 0.00000000, 0.00000000, 0.00000000, 0.00000000, -0.52109998, -0.17270000, 0.75940001, 0.34880000, -0.13600001, 0.17200001, 0.17600001, 0.00000000, 0.00000000, 0.00000000, 0.00000000
1, 1.4700, 147, 0.00000000, 0.00000000, 0.00000000, 0.00000000, 0.00000000, 0.00000000, 0.00000000, 0.00000000, 0.00000000, 0.00000000, 0.00000000, 0.00000000, -0.51980001, -0.17109999, 0.76209998, 0.34570000, -0.11100001, 0.18500000, 0.17500001, 0.00000000, 0.00000000, 0.00000000, 0.00000000
1, 1.4800, 148, 0.00000000, 0.00000000, 0.00000000, 0.00000000, 0.00000000, 0.00000000, 0.00000000, 0.00000000, 0.00000000, 0.00000000, 0.00000000, 0.00000000, -0.51949996, -0.16970000, 0.76379997, 0.34320000, -0.07100000, 0.21100001, 0.19200000, 0.00000000, 0.00000000, 0.00000000, 0.00000000
1, 1.4900, 149, 0.00000000, 0.00000000, 0.00000000, 0.00000000, 0.00000000, 0.00000000, 0.00000000, 0.00000000, 0.00000000, 0.00000000, 0.00000000, 0.00000000, -0.51989996, -0.16859999, 0.76429999, 0.34199998, -0.06000000, 0.24700001, 0.20600002, 0.00000000, 0.00000000, 0.00000000, 0.00000000
1, 1.5000, 150, 0.00000000, 0.00000000, 0.00000000, 0.00000000, 0.00000000, 0.00000000, 0.00000000, 0.00000000, 0.00000000, 0.00000000, 0.00000000, 0.00000000, -0.52099997, -0.16849999, 0.76339996, 0.34239998, -0.05100000, 0.25100002, 0.23200001, 0.00000000, 0.00000000, 0.00000000, 0.00000000
1, 1.5100, 151, 0.00000000, 0.00000000, 0.00000000, 0.00000000, 0.00000000, 0.00000000, 0.00000000, 0.00000000, 0.00000000, 0.00000000, 0.00000000, 0.00000000, -0.52260000, -0.16900000, 0.76169997, 0.34349999, -0.02700000, 0.17000000, 0.13700001, 0.00000000, 0.00000000, 0.00000000, 0.00000000
1, 1.5200, 152, 0.00000000, 0.00000000, 0.00000000, 0.00000000, 0.00000000, 0.00000000, 0.00000000, 0.00000000, 0.00000000, 0.00000000, 0.00000000, 0.00000000, -0.52459997, -0.17009999, 0.75949997, 0.34489998, -0.01100000, 0.18000001, 0.10300001, 0.00000000, 0.00000000, 0.00000000, 0.00000000
1, 1.5300, 153, 0.00000000, 0.00000000, 0.00000000, 0.00000000, 0.00000000, 0.00000000, 0.00000000, 0.00000000, 0.00000000, 0.00000000, 0.00000000, 0.00000000, -0.52689999, -0.17160000, 0.75669998, 0.34669998, -0.01900000, 0.20200001, 0.10600001, 0.00000000, 0.00000000, 0.00000000, 0.00000000
1, 1.5400, 154, 0.00000000, 0.00000000, 0.00000000, 0.00000000, 0.00000000, 0.00000000, 0.00000000, 0.00000000, 0.00000000, 0.00000000, 0.00000000, 0.00000000, -0.52950001, -0.17399999, 0.75290000, 0.34970000, -0.07400000, -0.01000000, 0.07800000, 0.00000000, 0.00000000, 0.00000000, 0.00000000
1, 1.5500, 155, 0.00000000, 0.00000000, 0.00000000, 0.00000000, 0.00000000, 0.00000000, 0.00000000, 0.00000000, 0.00000000, 0.00000000, 0.00000000, 0.00000000, -0.53259999, -0.17739999, 0.74769998, 0.35450000, -0.21100001, -0.36600003, 0.00000000, 0.00000000, 0.00000000, 0.00000000, 0.00000000
1, 1.5600, 156, 0.00000000, 0.00000000, 0.00000000, 0.00000000, 0.00000000, 0.00000000, 0.00000000, 0.00000000, 0.00000000, 0.00000000, 0.00000000, 0.00000000, -0.53590000, -0.18130000, 0.74159998, 0.36030000, -0.38000003, -0.23100001, 0.02500000, 0.00000000, 0.00000000, 0.00000000, 0.00000000
1, 1.5700, 157, 0.00000000, 0.00000000, 0.00000000, 0.00000000, 0.00000000, 0.00000000, 0.00000000, 0.00000000, 0.00000000, 0.00000000, 0.00000000, 0.00000000, -0.53939998, -0.18460000, 0.73519999, 0.36629999, -0.55200005, 0.22700001, 0.24400002, 0.00000000, 0.00000000, 0.00000000, 0.00000000
1, 1.5800, 158, 0.00000000, 0.00000000, 0.00000000, 0.00000000, 0.00000000, 0.00000000, 0.00000000, 0.00000000, 0.00000000, 0.00000000, 0.00000000, 0.00000000, -0.54219997, -0.18670000, 0.72999996, 0.37160000, -0.60100001, 0.74200004, 0.36000001, 0.00000000, 0.00000000, 0.00000000, 0.00000000
1, 1.5900, 159, 0.00000000, 0.00000000, 0.00000000, 0.00000000, 0.00000000, 0.00000000, 0.00000000, 0.00000000, 0.00000000, 0.00000000, 0.00000000, 0.00000000, -0.54350001, -0.18859999, 0.72709996, 0.37430000, -0.42900002, 0.78300005, 0.46000001, 0.00000000, 0.00000000, 0.00000000, 0.00000000
1, 1.6000, 160, 0.00000000, 0.00000000, 0.00000000, 0.00000000, 0.00000000, 0.00000000, 0.00000000, 0.00000000, 0.00000000, 0.00000000, 0.00000000, 0.00000000, -0.54320002, -0.19190000, 0.72589999, 0.37549999, -0.38200003, 0.22400001, 0.09900001, 0.00000000, 0.00000000, 0.00000000, 0.00000000
1, 1.6100, 161, 0.00000000, 0.00000000, 0.00000000, 0.00000000, 0.00000000, 0.00000000, 0.00000000, 0.00000000, 0.00000000, 0.00000000, 0.00000000, 0.00000000, -0.54189998, -0.19559999, 0.72469997, 0.37770000, -0.36800003, -0.48500001, -0.02300000, 0.00000000, 0.00000000, 0.00000000, 0.00000000
1, 1.6200, 162, 0.00000000, 0.00000000, 0.00000000, 0.00000000, 0.00000000, 0.00000000, 0.00000000, 0.00000000, 0.00000000, 0.00000000, 0.00000000, 0.00000000, -0.54140002, -0.19810000, 0.72369999, 0.37919998, -0.21300001, -0.91500002, -0.01200000, 0.00000000, 0.00000000, 0.00000000, 0.00000000
1, 1.6300, 163, 0.00000000, 0.00000000, 0.00000000, 0.00000000, 0.00000000, 0.00000000, 0.00000000, 0.00000000, 0.00000000, 0.00000000, 0.00000000, 0.00000000, -0.54189998, -0.19810000, 0.72439998, 0.37700000, 0.02800000, -1.11500001, -0.01500000, 0.00000000, 0.00000000, 0.00000000, 0.00000000
1, 1.6400, 164, 0.00000000, 0.00000000, 0.00000000, 0.00000000, 0.00000000, 0.00000000, 0.00000000, 0.00000000, 0.00000000, 0.00000000, 0.00000000, 0.00000000, -0.54339999, -0.19599999, 0.72670001, 0.37149999, 0.00600000, -0.99000007, -0.10700001, 0.00000000, 0.00000000, 0.00000000, 0.00000000
1, 1.6500, 165, 0.00000000, 0.00000000, 0.00000000, 0.00000000, 0.00000000, 0.00000000, 0.00000000, 0.00000000, 0.00000000, 0.00000000, 0.00000000, 0.00000000, -0.54609996, -0.19239999, 0.72920001, 0.36440000, -0.09500001, -0.87200004, -0.16600001, 0.00000000, 0.00000000, 0.00000000, 0.00000000
1, 1.6600, 166, 0.00000000, 0.00000000, 0.00000000, 0.00000000, 0.00000000, 0.00000000, 0.00000000, 0.00000000, 0.00000000, 0.00000000, 0.00000000, 0.00000000, -0.54979998, -0.18810000, 0.73130000, 0.35689998, -0.06800000, -0.76900005, -0.19100001, 0.00000000, 0.00000000, 0.00000000, 0.00000000
1, 1.6700, 167, 0.00000000, 0.00000000, 0.00000000, 0.00000000, 0.00000000, 0.00000000, 0.00000000, 0.00000000, 0.00000000, 0.00000000, 0.00000000, 0.00000000, -0.55299997, -0.18470000, 0.73319995, 0.34979999, -0.04600000, -0.54000002, -0.17900001, 0.00000000, 0.00000000, 0.00000000, 0.00000000
1, 1.6800, 168, 0.00000000, 0.00000000, 0.00000000, 0.00000000, 0.00000000, 0.00000000, 0.00000000, 0.00000000, 0.00000000, 0.00000000, 0.00000000, 0.00000000, -0.55549997, -0.18279999, 0.73460001, 0.34379998, -0.04100000, -0.22000001, -0.13900001, 0.00000000, 0.00000000, 0.00000000, 0.00000000
1, 1.6900, 169, 0.00000000, 0.00000000, 0.00000000, 0.00000000, 0.00000000, 0.00000000, 0.00000000, 0.00000000, 0.00000000, 0.00000000, 0.00000000, 0.00000000, -0.55759996, -0.18189999, 0.73549998, 0.33879998, -0.02700000, 0.04400000, -0.08800001, 0.00000000, 0.00000000, 0.00000000, 0.00000000
1, 1.7000, 170, 0.00000000, 0.00000000, 0.00000000, 0.00000000, 0.00000000, 0.00000000, 0.00000000, 0.00000000, 0.00000000, 0.00000000, 0.00000000, 0.00000000, -0.55909997, -0.18159999, 0.73629999, 0.33469999, -0.01900000, 0.10000000, -0.03300000, 0.00000000, 0.00000000, 0.00000000, 0.00000000
1, 1.7100, 171, 0.00000000, 0.00000000, 0.00000000, 0.00000000, 0.00000000, 0.00000000, 0.00000000, 0.00000000, 0.00000000, 0.00000000, 0.00000000, 0.00000000, -0.56000000, -0.18189999, 0.73710001, 0.33149999, -0.01400000, -0.07500000, -0.07900000, 0.00000000, 0.00000000, 0.00000000, 0.00000000
1, 1.7200, 172, 0.00000000, 0.00000000, 0.00000000, 0.00000000, 0.00000000, 0.00000000, 0.00000000, 0.00000000, 0.00000000, 0.00000000, 0.00000000, 0.00000000, -0.56049997, -0.18290000, 0.73749995, 0.32920000, -0.01600000, -0.23900001, -0.10700001, 0.00000000, 0.00000000, 0.00000000, 0.00000000
1, 1.7300, 173, 0.00000000, 0.00000000, 0.00000000, 0.00000000, 0.00000000, 0.00000000, 0.00000000, 0.00000000, 0.00000000, 0.00000000, 0.00000000, 0.00000000, -0.56110001, -0.18400000, 0.73769999, 0.32690001, -0.04000000, -0.32400000, -0.09900001, 0.00000000, 0.00000000, 0.00000000, 0.00000000
1, 1.7400, 174, 0.00000000, 0.00000000, 0.00000000, 0.00000000, 0.00000000, 0.00000000, 0.00000000, 0.00000000, 0.00000000, 0.00000000, 0.00000000, 0.00000000, -0.56189996, -0.18519999, 0.73789996, 0.32449999, -0.08900000, -0.40300003, -0.12300000, 0.00000000, 0.00000000, 0.00000000, 0.00000000
1, 1.7500, 175, 0.00000000, 0.00000000, 0.00000000, 0.00000000, 0.00000000, 0.00000000, 0.00000000, 0.00000000, 0.00000000, 0.00000000, 0.00000000, 0.00000000, -0.56269997, -0.18660000, 0.73789996, 0.32220000, -0.11000001, -0.39600003, -0.16700001, 0.00000000, 0.00000000, 0.00000000, 0.00000000
1, 1.7600, 176, 0.00000000, 0.00000000, 0.00000000, 0.00000000, 0.00000000, 0.00000000, 0.00000000, 0.00000000, 0.00000000, 0.00000000, 0.00000000, 0.00000000, -0.56360000, -0.18799999, 0.73799998, 0.31950000, -0.10400000, -0.35600001, -0.17000000, 0.00000000, 0.00000000, 0.00000000, 0.00000000
1, 1.7700, 177, 0.00000000, 0.00000000, 0.00000000, 0.00000000, 0.00000000, 0.00000000, 0.00000000, 0.00000000, 0.00000000, 0.00000000, 0.00000000, 0.00000000, -0.56470001, -0.18949999, 0.73809999, 0.31649998, -0.07200000, -0.30700001, -0.12900001, 0.00000000, 0.00000000, 0.00000000, 0.00000000
1, 1.7800, 178, 0.00000000, 0.00000000, 0.00000000, 0.00000000, 0.00000000, 0.00000000, 0.00000000, 0.00000000, 0.00000000, 0.00000000, 0.00000000, 0.00000000, -0.56580001, -0.19119999, 0.73829997, 0.31320000, -0.04500000, -0.22500001, -0.06600000, 0.00000000, 0.00000000, 0.00000000, 0.00000000
1, 1.7900, 179, 0.00000000, 0.00000000, 0.00000000, 0.00000000, 0.00000000, 0.00000000, 0.00000000, 0.00000000, 0.00000000, 0.00000000, 0.00000000, 0.00000000, -0.56680000, -0.19299999, 0.73850000, 0.30969998, -0.02800000, -0.15300001, -0.01300000, 0.00000000, 0.00000000, 0.00000000, 0.00000000
1, 1.8000, 180, 0.00000000, 0.00000000, 0.00000000, 0.00000000, 0.00000000, 0.00000000, 0.00000000, 0.00000000, 0.00000000, 0.00000000, 0.00000000, 0.00000000, -0.56799996, -0.19450000, 0.73879999, 0.30579999, -0.02000000, -0.10700001, 0.01700000, 0.00000000, 0.00000000, 0.00000000, 0.00000000
1, 1.8100, 181, 0.00000000, 0.00000000, 0.00000000, 0.00000000, 0.00000000, 0.00000000, 0.00000000, 0.00000000, 0.00000000, 0.00000000, 0.00000000, 0.00000000, -0.56930000, -0.19559999, 0.73920000, 0.30179998, -0.00800000, -0.09600000, 0.03000000, 0.00000000, 0.00000000, 0.00000000, 0.00000000
1, 1.8200, 182, 0.00000000, 0.00000000, 0.00000000, 0.00000000, 0.00000000, 0.00000000, 0.00000000, 0.00000000, 0.00000000, 0.00000000, 0.00000000, 0.00000000, -0.57069999, -0.19610000, 0.73969996, 0.29749998, 0.00900000, -0.09100001, -0.00300000, 0.00000000, 0.00000000, 0.00000000, 0.00000000
1, 1.8300, 183, 0.00000000, 0.00000000, 0.00000000, 0.00000000, 0.00000000, 0.00000000, 0.00000000, 0.00000000, 0.00000000, 0.00000000, 0.00000000, 0.00000000, -0.57229996, -0.19579999, 0.74039996, 0.29279998, 0.01100000, -0.08100000, -0.02400000, 0.00000000, 0.00000000, 0.00000000, 0.00000000
1, 1.8400, 184, 0.00000000, 0.00000000, 0.00000000, 0.00000000, 0.00000000, 0.00000000, 0.00000000, 0.00000000, 0.00000000, 0.00000000, 0.00000000, 0.00000000, -0.57400000, -0.19509999, 0.74129999, 0.28770000, 0.00900000, -0.07600001, -0.02300000, 0.00000000, 0.00000000, 0.00000000, 0.00000000
1, 1.8500, 185, 0.00000000, 0.00000000, 0.00000000, 0.00000000, 0.00000000, 0.00000000, 0.00000000, 0.00000000, 0.00000000, 0.00000000, 0.00000000, 0.00000000, -0.57580000, -0.19399999, 0.74219996, 0.28230000, 0.00800000, -0.07000000, -0.02600000, 0.00000000, 0.00000000, 0.00000000, 0.00000000
1, 1.8600, 186, 0.00000000, 0.00000000, 0.00000000, 0.00000000, 0.00000000, 0.00000000, 0.00000000, 0.00000000, 0.00000000, 0.00000000, 0.00000000, 0.00000000, -0.57769996, -0.19260000, 0.74329996, 0.27669999, 0.00800000, -0.04500000, -0.03400000, 0.00000000, 0.00000000, 0.00000000, 0.00000000
1, 1.8700, 187, 0.00000000, 0.00000000, 0.00000000, 0.00000000, 0.00000000, 0.00000000, 0.00000000, 0.00000000, 0.00000000, 0.00000000, 0.00000000, 0.00000000, -0.57959998, -0.19119999, 0.74419999, 0.27109998, 0.00800000, -0.01500000, -0.04800000, 0.00000000, 0.00000000, 0.00000000, 0.00000000
1, 1.8800, 188, 0.00000000, 0.00000000, 0.00000000, 0.00000000, 0.00000000, 0.00000000, 0.00000000, 0.00000000, 0.00000000, 0.00000000, 0.00000000, 0.00000000, -0.58149999, -0.18979999, 0.74509996, 0.26539999, -0.00100000, 0.00500000, -0.06000000, 0.00000000, 0.00000000, 0.00000000, 0.00000000
1, 1.8900, 189, 0.00000000, 0.00000000, 0.00000000, 0.00000000, 0.00000000, 0.00000000, 0.00000000, 0.00000000, 0.00000000, 0.00000000, 0.00000000, 0.00000000, -0.58340001, -0.18859999, 0.74589998, 0.25979999, -0.01200000, 0.00100000, -0.06500001, 0.00000000, 0.00000000, 0.00000000, 0.00000000
1, 1.9000, 190, 0.00000000, 0.00000000, 0.00000000, 0.00000000, 0.00000000, 0.00000000, 0.00000000, 0.00000000, 0.00000000, 0.00000000, 0.00000000, 0.00000000, -0.58510000, -0.18750000, 0.74680001, 0.25430000, 0.00000000, 0.02800000, -0.07000000, 0.00000000, 0.00000000, 0.00000000, 0.00000000
1, 1.9100, 191, 0.00000000, 0.00000000, 0.00000000, 0.00000000, 0.00000000, 0.00000000, 0.00000000, 0.00000000, 0.00000000, 0.00000000, 0.00000000, 0.00000000, -0.58669996, -0.18640000, 0.74769998, 0.24859999, 0.00900000, 0.06500001, -0.05000000, 0.00000000, 0.00000000, 0.00000000, 0.00000000
1, 1.9200, 192, 0.00000000, 0.00000000, 0.00000000, 0.00000000, 0.00000000, 0.00000000, 0.00000000, 0.00000000, 0.00000000, 0.00000000, 0.00000000, 0.00000000, -0.58819997, -0.18550000, 0.74849999, 0.24309999, 0.01300000, 0.09900001, -0.04200000, 0.00000000, 0.00000000, 0.00000000, 0.00000000
1, 1.9300, 193, 0.00000000, 0.00000000, 0.00000000, 0.00000000, 0.00000000, 0.00000000, 0.00000000, 0.00000000, 0.00000000, 0.00000000, 0.00000000, 0.00000000, -0.58959997, -0.18500000, 0.74930000, 0.23789999, 0.00700000, 0.11300001, -0.02200000, 0.00000000, 0.00000000, 0.00000000, 0.00000000
1, 1.9400, 194, 0.00000000, 0.00000000, 0.00000000, 0.00000000, 0.00000000, 0.00000000, 0.00000000, 0.00000000, 0.00000000, 0.00000000, 0.00000000, 0.00000000, -0.59090000, -0.18470000, 0.74979997, 0.23300000, -0.01500000, 0.09200001, 0.00900000, 0.00000000, 0.00000000, 0.00000000, 0.00000000
1, 1.9500, 195, 0.00000000, 0.00000000, 0.00000000, 0.00000000, 0.00000000, 0.00000000, 0.00000000, 0.00000000, 0.00000000, 0.00000000, 0.00000000, 0.00000000, -0.59240001, -0.18439999, 0.75029999, 0.22800000, -0.02700000, 0.07600001, 0.01700000, 0.00000000, 0.00000000, 0.00000000, 0.00000000
1, 1.9600, 196, 0.00000000, 0.00000000, 0.00000000, 0.00000000, 0.00000000, 0.00000000, 0.00000000, 0.00000000, 0.00000000, 0.00000000, 0.00000000, 0.00000000, -0.59380001, -0.18429999, 0.75059998, 0.22319999, -0.02400000, 0.14800000, 0.01900000, 0.00000000, 0.00000000, 0.00000000, 0.00000000
1, 1.9700, 197, 0.00000000, 0.00000000, 0.00000000, 0.00000000, 0.00000000, 0.00000000, 0.00000000, 0.00000000, 0.00000000, 0.00000000, 0.00000000, 0.00000000, -0.59529996, -0.18400000, 0.75089997, 0.21849999, -0.01100000, 0.22100002, 0.03700000, 0.00000000, 0.00000000, 0.00000000, 0.00000000
1, 1.9800, 198, 0.00000000, 0.00000000, 0.00000000, 0.00000000, 0.00000000, 0.00000000, 0.00000000, 0.00000000, 0.00000000, 0.00000000, 0.00000000, 0.00000000, -0.59679997, -0.18370000, 0.75110000, 0.21380000, -0.01400000, 0.25900000, 0.08000001, 0.00000000, 0.00000000, 0.00000000, 0.00000000
1, 1.9900, 199, 0.00000000, 0.00000000, 0.00000000, 0.00000000, 0.00000000, 0.00000000, 0.00000000, 0.00000000, 0.00000000, 0.00000000, 0.00000000, 0.00000000, -0.59850001, -0.18349999, 0.75099999, 0.20960000, 0.00000000, 0.26800001, 0.11800001, 0.00000000, 0.00000000, 0.00000000, 0.00000000
1, 2.0000, 200, 0.00000000, 0.00000000, 0.00000000, 0.00000000, 0.00000000, 0.00000000, 0.00000000, 0.00000000, 0.00000000, 0.00000000, 0.00000000, 0.00000000, -0.60009998, -0.18329999, 0.75079995, 0.20580000, 0.01800000, 0.27900001, 0.09500001, 0.00000000, 0.00000000, 0.00000000, 0.00000000
1, 2.0100, 201, 0.00000000, 0.00000000, 0.00000000, 0.00000000, 0.00000000, 0.00000000, 0.00000000, 0.00000000, 0.00000000, 0.00000000, 0.00000000, 0.00000000, -0.60179996, -0.18310000, 0.75059998, 0.20199999, 0.01800000, 0.28100002, 0.08500000, 0.00000000, 0.00000000, 0.00000000, 0.00000000
1, 2.0200, 202, 0.00000000, 0.00000000, 0.00000000, 0.00000000, 0.00000000, 0.00000000, 0.00000000, 0.00000000, 0.00000000, 0.00000000, 0.00000000, 0.00000000, -0.60350001, -0.18269999, 0.75019997, 0.19839999, 0.02800000, 0.26100001, 0.05700000, 0.00000000, 0.00000000, 0.00000000, 0.00000000
1, 2.0300, 203, 0.00000000, 0.00000000, 0.00000000, 0.00000000, 0.00000000, 0.00000000, 0.00000000, 0.00000000, 0.00000000, 0.00000000, 0.00000000, 0.00000000, -0.60530001, -0.18210000, 0.74979997, 0.19499999, 0.04500000, 0.26400000, 0.02700000, 0.00000000, 0.00000000, 0.00000000, 0.00000000
1, 2.0400, 204, 0.00000000, 0.00000000, 0.00000000, 0.00000000, 0.00000000, 0.00000000, 0.00000000, 0.00000000, 0.00000000, 0.00000000, 0.00000000, 0.00000000, -0.60710001, -0.18140000, 0.74939996, 0.19190000, 0.06300000, 0.25900000, 0.00800000, 0.00000000, 0.00000000, 0.00000000, 0.00000000
1, 2.0500, 205, 0.00000000, 0.00000000, 0.00000000, 0.00000000, 0.00000000, 0.00000000, 0.00000000, 0.00000000, 0.00000000, 0.00000000, 0.00000000, 0.00000000, -0.60859996, -0.18060000, 0.74899995, 0.18930000, 0.07100000, 0.19900002, -0.01800000, 0.00000000, 0.00000000, 0.00000000, 0.00000000
1, 2.0600, 206, 0.00000000, 0.00000000, 0.00000000, 0.00000000, 0.00000000, 0.00000000, 0.00000000, 0.00000000, 0.00000000, 0.00000000, 0.00000000, 0.00000000, -0.60990000, -0.17970000, 0.74879998, 0.18699999, 0.06200000, 0.11000001, -0.03200000, 0.00000000, 0.00000000, 0.00000000, 0.00000000
1, 2.0700, 207, 0.00000000, 0.00000000, 0.00000000, 0.00000000, 0.00000000, 0.00000000, 0.00000000, 0.00000000, 0.00000000, 0.00000000, 0.00000000, 0.00000000, -0.61100000, -0.17909999, 0.74849999, 0.18490000, 0.05300000, 0.01900000, -0.01900000, 0.00000000, 0.00000000, 0.00000000, 0.00000000
1, 2.0800, 208, 0.00000000, 0.00000000, 0.00000000, 0.00000000, 0.00000000, 0.00000000, 0.00000000, 0.00000000, 0.00000000, 0.00000000, 0.00000000, 0.00000000, -0.61219996, -0.17839999, 0.74829996, 0.18259999, 0.02900000, -0.09500001, -0.00600000, 0.00000000, 0.00000000, 0.00000000, 0.00000000
1, 2.0900, 209, 0.00000000, 0.00000000, 0.00000000, 0.00000000, 0.00000000, 0.00000000, 0.00000000, 0.00000000, 0.00000000, 0.00000000, 0.00000000, 0.00000000, -0.61350000, -0.17790000, 0.74790001, 0.18009999, 0.00400000, -0.19400001, -0.03200000, 0.00000000, 0.00000000, 0.00000000, 0.00000000
1, 2.1000, 210, 0.00000000, 0.00000000, 0.00000000, 0.00000000, 0.00000000, 0.00000000, 0.00000000, 0.00000000, 0.00000000, 0.00000000, 0.00000000, 0.00000000, -0.61500001, -0.17770000, 0.74739999, 0.17729999, -0.01700000, -0.25300002, -0.03100000, 0.00000000, 0.00000000, 0.00000000, 0.00000000
1, 2.1100, 211, 0.00000000, 0.00000000, 0.00000000, 0.00000000, 0.00000000, 0.00000000, 0.00000000, 0.00000000, 0.00000000, 0.00000000, 0.00000000, 0.00000000, -0.61680001, -0.17749999, 0.74669999, 0.17420000, -0.03100000, -0.28500003, -0.00300000, 0.00000000, 0.00000000, 0.00000000, 0.00000000
1, 2.1200, 212, 0.00000000, 0.00000000, 0.00000000, 0.00000000, 0.00000000, 0.00000000, 0.00000000, 0.00000000, 0.00000000, 0.00000000, 0.00000000, 0.00000000, -0.61869997, -0.17729999, 0.74599999, 0.17070000, -0.02900000, -0.27000001, -0.03400000, 0.00000000, 0.00000000, 0.00000000, 0.00000000
1, 2.1300, 213, 0.00000000, 0.00000000, 0.00000000, 0.00000000, 0.00000000, 0.00000000, 0.00000000, 0.00000000, 0.00000000, 0.00000000, 0.00000000, 0.00000000, -0.62070000, -0.17739999, 0.74509996, 0.16710000, -0.01900000, -0.21100001, -0.02600000, 0.00000000, 0.00000000, 0.00000000, 0.00000000
1, 2.1400, 214, 0.00000000, 0.00000000, 0.00000000, 0.00000000, 0.00000000, 0.00000000, 0.00000000, 0.00000000, 0.00000000, 0.00000000, 0.00000000, 0.00000000, -0.62279999, -0.17770000, 0.74399996, 0.16350000, -0.00800000, -0.14100000, -0.00500000, 0.00000000, 0.00000000, 0.00000000, 0.00000000
1, 2.1500, 215, 0.00000000, 0.00000000, 0.00000000, 0.00000000, 0.00000000, 0.00000000, 0.00000000, 0.00000000, 0.00000000, 0.00000000, 0.00000000, 0.00000000, -0.62489998, -0.17839999, 0.74280000, 0.16010000, 0.01100000, -0.06300000, -0.02400000, 0.00000000, 0.00000000, 0.00000000, 0.00000000
1, 2.1600, 216, 0.00000000, 0.00000000, 0.00000000, 0.00000000, 0.00000000, 0.00000000, 0.00000000, 0.00000000, 0.00000000, 0.00000000, 0.00000000, 0.00000000, -0.62680000, -0.17970000, 0.74159998, 0.15719999, 0.03900000, 0.00300000, -0.03300000, 0.00000000, 0.00000000, 0.00000000, 0.00000000
1, 2.1700, 217, 0.00000000, 0.00000000, 0.00000000, 0.00000000, 0.00000000, 0.00000000, 0.00000000, 0.00000000, 0.00000000, 0.00000000, 0.00000000, 0.00000000, -0.62830001, -0.18140000, 0.74039996, 0.15500000, 0.06800000, 0.05800000, -0.09300000, 0.00000000, 0.00000000, 0.00000000, 0.00000000
1, 2.1800, 218, 0.00000000, 0.00000000, 0.00000000, 0.00000000, 0.00000000, 0.00000000, 0.00000000, 0.00000000, 0.00000000, 0.00000000, 0.00000000, 0.00000000, -0.62949997, -0.18310000, 0.73929995, 0.15310000, 0.08400001, 0.08800001, -0.14300001, 0.00000000, 0.00000000, 0.00000000, 0.00000000
1, 2.1900, 219, 0.00000000, 0.00000000, 0.00000000, 0.00000000, 0.00000000, 0.00000000, 0.00000000, 0.00000000, 0.00000000, 0.00000000, 0.00000000, 0.00000000, -0.63059998, -0.18490000, 0.73829997, 0.15160000, 0.09700000, 0.09500001, -0.13500001, 0.00000000, 0.00000000, 0.00000000, 0.00000000
1, 2.2000, 220, 0.00000000, 0.00000000, 0.00000000, 0.00000000, 0.00000000, 0.00000000, 0.00000000, 0.00000000, 0.00000000, 0.00000000, 0.00000000, 0.00000000, -0.63150001, -0.18679999, 0.73729998, 0.15030000, 0.09000000, 0.07400000, -0.11200000, 0.00000000, 0.00000000, 0.00000000, 0.00000000
1, 2.2100, 221, 0.00000000, 0.00000000, 0.00000000, 0.00000000, 0.00000000, 0.00000000, 0.00000000, 0.00000000, 0.00000000, 0.00000000, 0.00000000, 0.00000000, -0.63209999, -0.18879999, 0.73649997, 0.14909999, 0.06000000, 0.02800000, -0.06200000, 0.00000000, 0.00000000, 0.00000000, 0.00000000
1, 2.2200, 222, 0.00000000, 0.00000000, 0.00000000, 0.00000000, 0.00000000, 0.00000000, 0.00000000, 0.00000000, 0.00000000, 0.00000000, 0.00000000, 0.00000000, -0.63279998, -0.19080000, 0.73569995, 0.14770000, 0.01100000, -0.02300000, -0.00300000, 0.00000000, 0.00000000, 0.00000000, 0.00000000
1, 2.2300, 223, 0.00000000, 0.00000000, 0.00000000, 0.00000000, 0.00000000, 0.00000000, 0.00000000, 0.00000000, 0.00000000, 0.00000000, 0.00000000, 0.00000000, -0.63360000, -0.19280000, 0.73479998, 0.14600000, -0.01800000, -0.05400000, 0.02200000, 0.00000000, 0.00000000, 0.00000000, 0.00000000
1, 2.2400, 224, 0.00000000, 0.00000000, 0.00000000, 0.00000000, 0.00000000, 0.00000000, 0.00000000, 0.00000000, 0.00000000, 0.00000000, 0.00000000, 0.00000000, -0.63449997, -0.19479999, 0.73379999, 0.14410000, -0.03800000, -0.06600000, 0.03500000, 0.00000000, 0.00000000, 0.00000000, 0.00000000
1, 2.2500, 225, 0.00000000, 0.00000000, 0.00000000, 0.00000000, 0.00000000, 0.00000000, 0.00000000, 0.00000000, 0.00000000, 0.00000000, 0.00000000, 0.00000000, -0.63559997, -0.19649999, 0.73280001, 0.14199999, -0.05600000, -0.04500000, 0.07300001, 0.00000000, 0.00000000, 0.00000000, 0.00000000
1, 2.2600, 226, 0.00000000, 0.00000000, 0.00000000, 0.00000000, 0.00000000, 0.00000000, 0.00000000, 0.00000000, 0.00000000, 0.00000000, 0.00000000, 0.00000000, -0.63690001, -0.19800000, 0.73179996, 0.13970000, -0.06200000, -0.00200000, 0.08300000, 0.00000000, 0.00000000, 0.00000000, 0.00000000
1, 2.2700, 227, 0.00000000, 0.00000000, 0.00000000, 0.00000000, 0.00000000, 0.00000000, 0.00000000, 0.00000000, 0.00000000, 0.00000000, 0.00000000, 0.00000000, -0.63819999, -0.19929999, 0.73069996, 0.13730000, -0.06200000, 0.04400000, 0.03900000, 0.00000000, 0.00000000, 0.00000000, 0.00000000
1, 2.2800, 228, 0.00000000, 0.00000000, 0.00000000, 0.00000000, 0.00000000, 0.00000000, 0.00000000, 0.00000000, 0.00000000, 0.00000000, 0.00000000, 0.00000000, -0.63949996, -0.20050000, 0.72969997, 0.13499999, -0.04600000, 0.06200000, 0.02300000, 0.00000000, 0.00000000, 0.00000000, 0.00000000
1, 2.2900, 229, 0.00000000, 0.00000000, 0.00000000, 0.00000000, 0.00000000, 0.00000000, 0.00000000, 0.00000000, 0.00000000, 0.00000000, 0.00000000, 0.00000000, -0.64059997, -0.20179999, 0.72869998, 0.13300000, -0.01700000, 0.05400000, -0.00500000, 0.00000000, 0.00000000, 0.00000000, 0.00000000
1, 2.3000, 230, 0.00000000, 0.00000000, 0.00000000, 0.00000000, 0.00000000, 0.00000000, 0.00000000, 0.00000000, 0.00000000, 0.00000000, 0.00000000, 0.00000000, -0.64160001, -0.20299999, 0.72789997, 0.13120000, -0.00200000, 0.04600000, -0.03700000, 0.00000000, 0.00000000, 0.00000000, 0.00000000
1, 2.3100, 231, 0.00000000, 0.00000000, 0.00000000, 0.00000000, 0.00000000, 0.00000000, 0.00000000, 0.00000000, 0.00000000, 0.00000000, 0.00000000, 0.00000000, -0.64249998, -0.20420000, 0.72700000, 0.12940000, -0.00300000, 0.02700000, -0.03900000, 0.00000000, 0.00000000, 0.00000000, 0.00000000
1, 2.3200, 232, 0.00000000, 0.00000000, 0.00000000, 0.00000000, 0.00000000, 0.00000000, 0.00000000, 0.00000000, 0.00000000, 0.00000000, 0.00000000, 0.00000000, -0.64340001, -0.20549999, 0.72609997, 0.12789999, -0.01300000, -0.00300000, -0.04500000, 0.00000000, 0.00000000, 0.00000000, 0.00000000
1, 2.3300, 233, 0.00000000, 0.00000000, 0.00000000, 0.00000000, 0.00000000, 0.00000000, 0.00000000, 0.00000000, 0.00000000, 0.00000000, 0.00000000, 0.00000000, -0.64429998, -0.20690000, 0.72529995, 0.12629999, -0.01600000, -0.02100000, -0.05100000, 0.00000000, 0.00000000, 0.00000000, 0.00000000
1, 2.3400, 234, 0.00000000, 0.00000000, 0.00000000, 0.00000000, 0.00000000, 0.00000000, 0.00000000, 0.00000000, 0.00000000, 0.00000000, 0.00000000, 0.00000000, -0.64510000, -0.20799999, 0.72439998, 0.12459999, -0.02700000, -0.03700000, -0.01000000, 0.00000000, 0.00000000, 0.00000000, 0.00000000
1, 2.3500, 235, 0.00000000, 0.00000000, 0.00000000, 0.00000000, 0.00000000, 0.00000000, 0.00000000, 0.00000000, 0.00000000, 0.00000000, 0.00000000, 0.00000000, -0.64609998, -0.20919999, 0.72359997, 0.12270000, -0.04700000, -0.05000000, 0.01000000, 0.00000000, 0.00000000, 0.00000000, 0.00000000
1, 2.3600, 236, 0.00000000, 0.00000000, 0.00000000, 0.00000000, 0.00000000, 0.00000000, 0.00000000, 0.00000000, 0.00000000, 0.00000000, 0.00000000, 0.00000000, -0.64709997, -0.21020000, 0.72279996, 0.12040000, -0.08700000, -0.05400000, 0.00500000, 0.00000000, 0.00000000, 0.00000000, 0.00000000
1, 2.3700, 237, 0.00000000, 0.00000000, 0.00000000, 0.00000000, 0.00000000, 0.00000000, 0.00000000, 0.00000000, 0.00000000, 0.00000000, 0.00000000, 0.00000000, -0.64819998, -0.21100000, 0.72189999, 0.11800000, -0.13100001, -0.04900000, 0.00200000, 0.00000000, 0.00000000, 0.00000000, 0.00000000
1, 2.3800, 238, 0.00000000, 0.00000000, 0.00000000, 0.00000000, 0.00000000, 0.00000000, 0.00000000, 0.00000000, 0.00000000, 0.00000000, 0.00000000, 0.00000000, -0.64940000, -0.21190000, 0.72099996, 0.11570000, -0.17400001, -0.01900000, 0.01400000, 0.00000000, 0.00000000, 0.00000000, 0.00000000
1, 2.3900, 239, 0.00000000, 0.00000000, 0.00000000, 0.00000000, 0.00000000, 0.00000000, 0.00000000, 0.00000000, 0.00000000, 0.00000000, 0.00000000, 0.00000000, -0.65059996, -0.21300000, 0.71989995, 0.11350000, -0.17800000, 0.03000000, 0.03000000, 0.00000000, 0.00000000, 0.00000000, 0.00000000
1, 2.4000, 240, 0.00000000, 0.00000000, 0.00000000, 0.00000000, 0.00000000, 0.00000000, 0.00000000, 0.00000000, 0.00000000, 0.00000000, 0.00000000, 0.00000000, -0.65179998, -0.21409999, 0.71880001, 0.11130000, -0.15900001, 0.07400000, 0.03100000, 0.00000000, 0.00000000, 0.00000000, 0.00000000
1, 2.4100, 241, 0.00000000, 0.00000000, 0.00000000, 0.00000000, 0.00000000, 0.00000000, 0.00000000, 0.00000000, 0.00000000, 0.00000000, 0.00000000, 0.00000000, -0.65289998, -0.21509999, 0.71789998, 0.10940000, -0.13700001, 0.12200001, -0.03900000, 0.00000000, 0.00000000, 0.00000000, 0.00000000
1, 2.4200, 242, 0.00000000, 0.00000000, 0.00000000, 0.00000000, 0.00000000, 0.00000000, 0.00000000, 0.00000000, 0.00000000, 0.00000000, 0.00000000, 0.00000000, -0.65389997, -0.21609999, 0.71700001, 0.10760000, -0.13600001, 0.17700000, -0.05700000, 0.00000000, 0.00000000, 0.00000000, 0.00000000
1, 2.4300, 243, 0.00000000, 0.00000000, 0.00000000, 0.00000000, 0.00000000, 0.00000000, 0.00000000, 0.00000000, 0.00000000, 0.00000000, 0.00000000, 0.00000000, -0.65489995, -0.21699999, 0.71599996, 0.10600000, -0.14900000, 0.19300000, -0.05000000, 0.00000000, 0.00000000, 0.00000000, 0.00000000
1, 2.4400, 244, 0.00000000, 0.00000000, 0.00000000, 0.00000000, 0.00000000, 0.00000000, 0.00000000, 0.00000000, 0.00000000, 0.00000000, 0.00000000, 0.00000000, -0.65569997, -0.21799999, 0.71509999, 0.10480000, -0.20100001, 0.14400001, -0.06700000, 0.00000000, 0.00000000, 0.00000000, 0.00000000
1, 2.4500, 245, 0.00000000, 0.00000000, 0.00000000, 0.00000000, 0.00000000, 0.00000000, 0.00000000, 0.00000000, 0.00000000, 0.00000000, 0.00000000, 0.00000000, -0.65639997, -0.21920000, 0.71419996, 0.10380000, -0.25300002, 0.12500000, -0.04800000, 0.00000000, 0.00000000, 0.00000000, 0.00000000
1, 2.4600, 246, 0.00000000, 0.00000000, 0.00000000, 0.00000000, 0.00000000, 0.00000000, 0.00000000, 0.00000000, 0.00000000, 0.00000000, 0.00000000, 0.00000000, -0.65719998, -0.22029999, 0.71329999, 0.10270000, -0.30700001, 0.11800001, -0.01700000, 0.00000000, 0.00000000, 0.00000000, 0.00000000
1, 2.4700, 247, 0.00000000, 0.00000000, 0.00000000, 0.00000000, 0.00000000, 0.00000000, 0.00000000, 0.00000000, 0.00000000, 0.00000000, 0.00000000, 0.00000000, -0.65819997, -0.22139999, 0.71219999, 0.10179999, -0.36500001, 0.12300000, 0.02200000, 0.00000000, 0.00000000, 0.00000000, 0.00000000
1, 2.4800, 248, 0.00000000, 0.00000000, 0.00000000, 0.00000000, 0.00000000, 0.00000000, 0.00000000, 0.00000000, 0.00000000, 0.00000000, 0.00000000, 0.00000000, -0.65910000, -0.22260000, 0.71109998, 0.10089999, -0.39300001, 0.17400001, 0.05200000, 0.00000000, 0.00000000, 0.00000000, 0.00000000
1, 2.4900, 249, 0.00000000, 0.00000000, 0.00000000, 0.00000000, 0.00000000, 0.00000000, 0.00000000, 0.00000000, 0.00000000, 0.00000000, 0.00000000, 0.00000000, -0.66009998, -0.22369999, 0.70989996, 0.10010000, -0.38300002, 0.24300002, 0.08000001, 0.00000000, 0.00000000, 0.00000000, 0.00000000
1, 2.5000, 250, 0.00000000, 0.00000000, 0.00000000, 0.00000000, 0.00000000, 0.00000000, 0.00000000, 0.00000000, 0.00000000, 0.00000000, 0.00000000, 0.00000000, -0.66109997, -0.22469999, 0.70879996, 0.09950000, -0.35000002, 0.26300001, 0.08300000, 0.00000000, 0.00000000, 0.00000000, 0.00000000
1, 2.5100, 251, 0.00000000, 0.00000000, 0.00000000, 0.00000000, 0.00000000, 0.00000000, 0.00000000, 0.00000000, 0.00000000, 0.00000000, 0.00000000, 0.00000000, -0.66200000, -0.22540000, 0.70779997, 0.09910000, -0.32900003, 0.29100001, 0.09400000, 0.00000000, 0.00000000, 0.00000000, 0.00000000
1, 2.5200, 252, 0.00000000, 0.00000000, 0.00000000, 0.00000000, 0.00000000, 0.00000000, 0.00000000, 0.00000000, 0.00000000, 0.00000000, 0.00000000, 0.00000000, -0.66299999, -0.22569999, 0.70679998, 0.09869999, -0.30300000, 0.33700001, 0.12300000, 0.00000000, 0.00000000, 0.00000000, 0.00000000
1, 2.5300, 253, 0.00000000, 0.00000000, 0.00000000, 0.00000000, 0.00000000, 0.00000000, 0.00000000, 0.00000000, 0.00000000, 0.00000000, 0.00000000, 0.00000000, -0.66399997, -0.22559999, 0.70599997, 0.09860000, -0.26600000, 0.34000000, 0.10600001, 0.00000000, 0.00000000, 0.00000000, 0.00000000
1, 2.5400, 254, 0.00000000, 0.00000000, 0.00000000, 0.00000000, 0.00000000, 0.00000000, 0.00000000, 0.00000000, 0.00000000, 0.00000000, 0.00000000, 0.00000000, -0.66469997, -0.22530000, 0.70539999, 0.09840000, -0.21100001, 0.32300001, 0.04800000, 0.00000000, 0.00000000, 0.00000000, 0.00000000
1, 2.5500, 255, 0.00000000, 0.00000000, 0.00000000, 0.00000000, 0.00000000, 0.00000000, 0.00000000, 0.00000000, 0.00000000, 0.00000000, 0.00000000, 0.00000000, -0.66569996, -0.22409999, 0.70489997, 0.09779999, -0.16400000, 0.37000000, 0.09400000, 0.00000000, 0.00000000, 0.00000000, 0.00000000
1, 2.5600, 256, 0.00000000, 0.00000000, 0.00000000, 0.00000000, 0.00000000, 0.00000000, 0.00000000, 0.00000000, 0.00000000, 0.00000000, 0.00000000, 0.00000000, -0.66710001, -0.22229999, 0.70429999, 0.09680000, -0.13500001, 0.38500002, 0.09800000, 0.00000000, 0.00000000, 0.00000000, 0.00000000
1, 2.5700, 257, 0.00000000, 0.00000000, 0.00000000, 0.00000000, 0.00000000, 0.00000000, 0.00000000, 0.00000000, 0.00000000, 0.00000000, 0.00000000, 0.00000000, -0.66850001, -0.22010000, 0.70379996, 0.09600000, -0.10000000, 0.33200002, 0.05200000, 0.00000000, 0.00000000, 0.00000000, 0.00000000
1, 2.5800, 258, 0.00000000, 0.00000000, 0.00000000, 0.00000000, 0.00000000, 0.00000000, 0.00000000, 0.00000000, 0.00000000, 0.00000000, 0.00000000, 0.00000000, -0.66969997, -0.21799999, 0.70330000, 0.09559999, -0.10300001, 0.15900001, 0.04900000, 0.00000000, 0.00000000, 0.00000000, 0.00000000
1, 2.5900, 259, 0.00000000, 0.00000000, 0.00000000, 0.00000000, 0.00000000, 0.00000000, 0.00000000, 0.00000000, 0.00000000, 0.00000000, 0.00000000, 0.00000000, -0.67100000, -0.21669999, 0.70239997, 0.09610000, -0.13600001, 0.02900000, 0.06100000, 0.00000000, 0.00000000, 0.00000000, 0.00000000
1, 2.6000, 260, 0.00000000, 0.00000000, 0.00000000, 0.00000000, 0.00000000, 0.00000000, 0.00000000, 0.00000000, 0.00000000, 0.00000000, 0.00000000, 0.00000000, -0.67229998, -0.21619999, 0.70120001, 0.09680000, -0.18800001, -0.10500000, 0.03100000, 0.00000000, 0.00000000, 0.00000000, 0.00000000
1, 2.6100, 261, 0.00000000, 0.00000000, 0.00000000, 0.00000000, 0.00000000, 0.00000000, 0.00000000, 0.00000000, 0.00000000, 0.00000000, 0.00000000, 0.00000000, -0.67369998, -0.21640000, 0.69970000, 0.09739999, -0.19200000, -0.16300000, -0.04200000, 0.00000000, 0.00000000, 0.00000000, 0.00000000
1, 2.6200, 262, 0.00000000, 0.00000000, 0.00000000, 0.00000000, 0.00000000, 0.00000000, 0.00000000, 0.00000000, 0.00000000, 0.00000000, 0.00000000, 0.00000000, -0.67509997, -0.21650000, 0.69830000, 0.09750000, -0.12900001, -0.12600000, -0.09900001, 0.00000000, 0.00000000, 0.00000000, 0.00000000
1, 2.6300, 263, 0.00000000, 0.00000000, 0.00000000, 0.00000000, 0.00000000, 0.00000000, 0.00000000, 0.00000000, 0.00000000, 0.00000000, 0.00000000, 0.00000000, -0.67619997, -0.21699999, 0.69709998, 0.09779999, -0.05400000, -0.03600000, -0.10500000, 0.00000000, 0.00000000, 0.00000000, 0.00000000
1, 2.6400, 264, 0.00000000, 0.00000000, 0.00000000, 0.00000000, 0.00000000, 0.00000000, 0.00000000, 0.00000000, 0.00000000, 0.00000000, 0.00000000, 0.00000000, -0.67689997, -0.21799999, 0.69610000, 0.09830000, -0.01900000, 0.10200001, -0.11600000, 0.00000000, 0.00000000, 0.00000000, 0.00000000
1, 2.6500, 265, 0.00000000, 0.00000000, 0.00000000, 0.00000000, 0.00000000, 0.00000000, 0.00000000, 0.00000000, 0.00000000, 0.00000000, 0.00000000, 0.00000000, -0.67719996, -0.21930000, 0.69519997, 0.09900000, 0.00300000, 0.19500001, -0.05000000, 0.00000000, 0.00000000, 0.00000000, 0.00000000
1, 2.6600, 266, 0.00000000, 0.00000000, 0.00000000, 0.00000000, 0.00000000, 0.00000000, 0.00000000, 0.00000000, 0.00000000, 0.00000000, 0.00000000, 0.00000000, -0.67719996, -0.22109999, 0.69449997, 0.10020000, 0.03100000, 0.30300000, 0.01900000, 0.00000000, 0.00000000, 0.00000000, 0.00000000
1, 2.6700, 267, 0.00000000, 0.00000000, 0.00000000, 0.00000000, 0.00000000, 0.00000000, 0.00000000, 0.00000000, 0.00000000, 0.00000000, 0.00000000, 0.00000000, -0.67710000, -0.22299999, 0.69379997, 0.10150000, 0.06800000, 0.31600001, 0.07400000, 0.00000000, 0.00000000, 0.00000000, 0.00000000
1, 2.6800, 268, 0.00000000, 0.00000000, 0.00000000, 0.00000000, 0.00000000, 0.00000000, 0.00000000, 0.00000000, 0.00000000, 0.00000000, 0.00000000, 0.00000000, -0.67739999, -0.22409999, 0.69290000, 0.10260000, 0.09000000, 0.31500003, 0.13300000, 0.00000000, 0.00000000, 0.00000000, 0.00000000
1, 2.6900, 269, 0.00000000, 0.00000000, 0.00000000, 0.00000000, 0.00000000, 0.00000000, 0.00000000, 0.00000000, 0.00000000, 0.00000000, 0.00000000, 0.00000000, -0.67809999, -0.22420000, 0.69209999, 0.10360000, 0.06600000, 0.27000001, 0.20800000, 0.00000000, 0.00000000, 0.00000000, 0.00000000
1, 2.7000, 270, 0.00000000, 0.00000000, 0.00000000, 0.00000000, 0.00000000, 0.00000000, 0.00000000, 0.00000000, 0.00000000, 0.00000000, 0.00000000, 0.00000000, -0.67930001, -0.22360000, 0.69099998, 0.10470000, 0.00500000, 0.23300001, 0.19100001, 0.00000000, 0.00000000, 0.00000000, 0.00000000
1, 2.7100, 271, 0.00000000, 0.00000000, 0.00000000, 0.00000000, 0.00000000, 0.00000000, 0.00000000, 0.00000000, 0.00000000, 0.00000000, 0.00000000, 0.00000000, -0.68059999, -0.22280000, 0.68979996, 0.10610000, -0.02500000, 0.21200001, 0.13300000, 0.00000000, 0.00000000, 0.00000000, 0.00000000
1, 2.7200, 272, 0.00000000, 0.00000000, 0.00000000, 0.00000000, 0.00000000, 0.00000000, 0.00000000, 0.00000000, 0.00000000, 0.00000000, 0.00000000, 0.00000000, -0.68180001, -0.22170000, 0.68860000, 0.10760000, -0.04400000, 0.11400001, 0.03700000, 0.00000000, 0.00000000, 0.00000000, 0.00000000
1, 2.7300, 273, 0.00000000, 0.00000000, 0.00000000, 0.00000000, 0.00000000, 0.00000000, 0.00000000, 0.00000000, 0.00000000, 0.00000000, 0.00000000, 0.00000000, -0.68320000, -0.22019999, 0.68759996, 0.10870000, -0.06400000, 0.02800000, -0.02800000, 0.00000000, 0.00000000, 0.00000000, 0.00000000
1, 2.7400, 274, 0.00000000, 0.00000000, 0.00000000, 0.00000000, 0.00000000, 0.00000000, 0.00000000, 0.00000000, 0.00000000, 0.00000000, 0.00000000, 0.00000000, -0.68460000, -0.21799999, 0.68680000, 0.10930000, -0.07200000, 0.03500000, -0.09400000, 0.00000000, 0.00000000, 0.00000000, 0.00000000
1, 2.7500, 275, 0.00000000, 0.00000000, 0.00000000, 0.00000000, 0.00000000, 0.00000000, 0.00000000, 0.00000000, 0.00000000, 0.00000000, 0.00000000, 0.00000000, -0.68570000, -0.21550000, 0.68649995, 0.10940000, -0.08200000, 0.04700000, -0.13500001, 0.00000000, 0.00000000, 0.00000000, 0.00000000
1, 2.7600, 276, 0.00000000, 0.00000000, 0.00000000, 0.00000000, 0.00000000, 0.00000000, 0.00000000, 0.00000000, 0.00000000, 0.00000000, 0.00000000, 0.00000000, -0.68659997, -0.21269999, 0.68649995, 0.10940000, -0.08500000, 0.04200000, -0.14800000, 0.00000000, 0.00000000, 0.00000000, 0.00000000
1, 2.7700, 277, 0.00000000, 0.00000000, 0.00000000, 0.00000000, 0.00000000, 0.00000000, 0.00000000, 0.00000000, 0.00000000, 0.00000000, 0.00000000, 0.00000000, -0.68709999, -0.20979999, 0.68680000, 0.10940000, -0.04700000, 0.01500000, -0.14500001, 0.00000000, 0.00000000, 0.00000000, 0.00000000
1, 2.7800, 278, 0.00000000, 0.00000000, 0.00000000, 0.00000000, 0.00000000, 0.00000000, 0.00000000, 0.00000000, 0.00000000, 0.00000000, 0.00000000, 0.00000000, -0.68729997, -0.20680000, 0.68750000, 0.10960000, -0.00500000, -0.02800000, -0.11500000, 0.00000000, 0.00000000, 0.00000000, 0.00000000
1, 2.7900, 279, 0.00000000, 0.00000000, 0.00000000, 0.00000000, 0.00000000, 0.00000000, 0.00000000, 0.00000000, 0.00000000, 0.00000000, 0.00000000, 0.00000000, -0.68709999, -0.20400000, 0.68849999, 0.11009999, 0.02800000, -0.08500000, -0.08700000, 0.00000000, 0.00000000, 0.00000000, 0.00000000
1, 2.8000, 280, 0.00000000, 0.00000000, 0.00000000, 0.00000000, 0.00000000, 0.00000000, 0.00000000, 0.00000000, 0.00000000, 0.00000000, 0.00000000, 0.00000000, -0.68669999, -0.20119999, 0.68959999, 0.11080000, 0.04600000, -0.15200001, -0.05700000, 0.00000000, 0.00000000, 0.00000000, 0.00000000
1, 2.8100, 281, 0.00000000, 0.00000000, 0.00000000, 0.00000000, 0.00000000, 0.00000000, 0.00000000, 0.00000000, 0.00000000, 0.00000000, 0.00000000, 0.00000000, -0.68629998, -0.19859999, 0.69069999, 0.11149999, 0.04400000, -0.18800001, -0.04100000, 0.00000000, 0.00000000, 0.00000000, 0.00000000
1, 2.8200, 282, 0.00000000, 0.00000000, 0.00000000, 0.00000000, 0.00000000, 0.00000000, 0.00000000, 0.00000000, 0.00000000, 0.00000000, 0.00000000, 0.00000000, -0.68579996, -0.19610000, 0.69180000, 0.11180000, 0.03800000, -0.19800001, -0.04100000, 0.00000000, 0.00000000, 0.00000000, 0.00000000
1, 2.8300, 283, 0.00000000, 0.00000000, 0.00000000, 0.00000000, 0.00000000, 0.00000000, 0.00000000, 0.00000000, 0.00000000, 0.00000000, 0.00000000, 0.00000000, -0.68529999, -0.19380000, 0.69290000, 0.11200000, 0.04400000, -0.17900001, -0.04000000, 0.00000000, 0.00000000, 0.00000000, 0.00000000
1, 2.8400, 284, 0.00000000, 0.00000000, 0.00000000, 0.00000000, 0.00000000, 0.00000000, 0.00000000, 0.00000000, 0.00000000, 0.00000000, 0.00000000, 0.00000000, -0.68460000, -0.19170000, 0.69419998, 0.11210000, 0.04600000, -0.13700001, -0.02600000, 0.00000000, 0.00000000, 0.00000000, 0.00000000
1, 2.8500, 285, 0.00000000, 0.00000000, 0.00000000, 0.00000000, 0.00000000, 0.00000000, 0.00000000, 0.00000000, 0.00000000, 0.00000000, 0.00000000, 0.00000000, -0.68369997, -0.18969999, 0.69559997, 0.11220000, 0.06200000, -0.11900000, -0.02200000, 0.00000000, 0.00000000, 0.00000000, 0.00000000
1, 2.8600, 286, 0.00000000, 0.00000000, 0.00000000, 0.00000000, 0.00000000, 0.00000000, 0.00000000, 0.00000000, 0.00000000, 0.00000000, 0.00000000, 0.00000000, -0.68250000, -0.18789999, 0.69720000, 0.11240000, 0.08600000, -0.11300001, -0.01300000, 0.00000000, 0.00000000, 0.00000000, 0.00000000
1, 2.8700, 287, 0.00000000, 0.00000000, 0.00000000, 0.00000000, 0.00000000, 0.00000000, 0.00000000, 0.00000000, 0.00000000, 0.00000000, 0.00000000, 0.00000000, -0.68119997, -0.18650000, 0.69879997, 0.11310000, 0.11400001, -0.10500000, -0.00400000, 0.00000000, 0.00000000, 0.00000000, 0.00000000
1, 2.8800, 288, 0.00000000, 0.00000000, 0.00000000, 0.00000000, 0.00000000, 0.00000000, 0.00000000, 0.00000000, 0.00000000, 0.00000000, 0.00000000, 0.00000000, -0.67960000, -0.18570000, 0.70029998, 0.11409999, 0.12200001, -0.08800001, 0.00100000, 0.00000000, 0.00000000, 0.00000000, 0.00000000
1, 2.8900, 289, 0.00000000, 0.00000000, 0.00000000, 0.00000000, 0.00000000, 0.00000000, 0.00000000, 0.00000000, 0.00000000, 0.00000000, 0.00000000, 0.00000000, -0.67789996, -0.18529999, 0.70179999, 0.11560000, 0.13000001, -0.10200001, 0.00000000, 0.00000000, 0.00000000, 0.00000000, 0.00000000
1, 2.9000, 290, 0.00000000, 0.00000000, 0.00000000, 0.00000000, 0.00000000, 0.00000000, 0.00000000, 0.00000000, 0.00000000, 0.00000000, 0.00000000, 0.00000000, -0.67619997, -0.18550000, 0.70309997, 0.11750000, 0.13900001, -0.12400001, -0.01200000, 0.00000000, 0.00000000, 0.00000000, 0.00000000
1, 2.9100, 291, 0.00000000, 0.00000000, 0.00000000, 0.00000000, 0.00000000, 0.00000000, 0.00000000, 0.00000000, 0.00000000, 0.00000000, 0.00000000, 0.00000000, -0.67449999, -0.18599999, 0.70429999, 0.11960000, 0.15700001, -0.14900000, -0.01800000, 0.00000000, 0.00000000, 0.00000000, 0.00000000
1, 2.9200, 292, 0.00000000, 0.00000000, 0.00000000, 0.00000000, 0.00000000, 0.00000000, 0.00000000, 0.00000000, 0.00000000, 0.00000000, 0.00000000, 0.00000000, -0.67289996, -0.18699999, 0.70510000, 0.12220000, 0.16800001, -0.15500000, -0.02900000, 0.00000000, 0.00000000, 0.00000000, 0.00000000
1, 2.9300, 293, 0.00000000, 0.00000000, 0.00000000, 0.00000000, 0.00000000, 0.00000000, 0.00000000, 0.00000000, 0.00000000, 0.00000000, 0.00000000, 0.00000000, -0.67119998, -0.18830000, 0.70589995, 0.12500000, 0.17500001, -0.13500001, -0.04600000, 0.00000000, 0.00000000, 0.00000000, 0.00000000
1, 2.9400, 294, 0.00000000, 0.00000000, 0.00000000, 0.00000000, 0.00000000, 0.00000000, 0.00000000, 0.00000000, 0.00000000, 0.00000000, 0.00000000, 0.00000000, -0.66949999, -0.18979999, 0.70660001, 0.12780000, 0.17400001, -0.12000000, -0.05900000, 0.00000000, 0.00000000, 0.00000000, 0.00000000
1, 2.9500, 295, 0.00000000, 0.00000000, 0.00000000, 0.00000000, 0.00000000, 0.00000000, 0.00000000, 0.00000000, 0.00000000, 0.00000000, 0.00000000, 0.00000000, -0.66780001, -0.19119999, 0.70719999, 0.13090000, 0.17800000, -0.11300001, -0.06700000, 0.00000000, 0.00000000, 0.00000000, 0.00000000
1, 2.9600, 296, 0.00000000, 0.00000000, 0.00000000, 0.00000000, 0.00000000, 0.00000000, 0.00000000, 0.00000000, 0.00000000, 0.00000000, 0.00000000, 0.00000000, -0.66619998, -0.19270000, 0.70769995, 0.13419999, 0.17500001, -0.10900000, -0.06600000, 0.00000000, 0.00000000, 0.00000000, 0.00000000
1, 2.9700, 297, 0.00000000, 0.00000000, 0.00000000, 0.00000000, 0.00000000, 0.00000000, 0.00000000, 0.00000000, 0.00000000, 0.00000000, 0.00000000, 0.00000000, -0.66459996, -0.19399999, 0.70819998, 0.13750000, 0.16700001, -0.11300001, -0.06200000, 0.00000000, 0.00000000, 0.00000000, 0.00000000
1, 2.9800, 298, 0.00000000, 0.00000000, 0.00000000, 0.00000000, 0.00000000, 0.00000000, 0.00000000, 0.00000000, 0.00000000, 0.00000000, 0.00000000, 0.00000000, -0.66319996, -0.19540000, 0.70849997, 0.14100000, 0.15000001, -0.12100001, -0.05000000, 0.00000000, 0.00000000, 0.00000000, 0.00000000
1, 2.9900, 299, 0.00000000, 0.00000000, 0.00000000, 0.00000000, 0.00000000, 0.00000000, 0.00000000, 0.00000000, 0.00000000, 0.00000000, 0.00000000, 0.00000000, -0.66179997, -0.19669999, 0.70870000, 0.14450000, 0.15100001, -0.13900001, -0.06700000, 0.00000000, 0.00000000, 0.00000000, 0.00000000
1, 3.0000, 300, 0.00000000, 0.00000000, 0.00000000, 0.00000000, 0.00000000, 0.00000000, 0.00000000, 0.00000000, 0.00000000, 0.00000000, 0.00000000, 0.00000000, -0.66049999, -0.19800000, 0.70879996, 0.14800000, 0.14800000, -0.13800001, -0.09000000, 0.00000000, 0.00000000, 0.00000000, 0.00000000
1, 3.0100, 301, 0.00000000, 0.00000000, 0.00000000, 0.00000000, 0.00000000, 0.00000000, 0.00000000, 0.00000000, 0.00000000, 0.00000000, 0.00000000, 0.00000000, -0.65929997, -0.19929999, 0.70889997, 0.15140000, 0.14300001, -0.13500001, -0.10200001, 0.00000000, 0.00000000, 0.00000000, 0.00000000
1, 3.0200, 302, 0.00000000, 0.00000000, 0.00000000, 0.00000000, 0.00000000, 0.00000000, 0.00000000, 0.00000000, 0.00000000, 0.00000000, 0.00000000, 0.00000000, -0.65810001, -0.20039999, 0.70899999, 0.15470000, 0.12400001, -0.12000000, -0.10500000, 0.00000000, 0.00000000, 0.00000000, 0.00000000
1, 3.0300, 303, 0.00000000, 0.00000000, 0.00000000, 0.00000000, 0.00000000, 0.00000000, 0.00000000, 0.00000000, 0.00000000, 0.00000000, 0.00000000, 0.00000000, -0.65679997, -0.20140000, 0.70919997, 0.15799999, 0.09400000, -0.09300000, -0.09900001, 0.00000000, 0.00000000, 0.00000000, 0.00000000
1, 3.0400, 304, 0.00000000, 0.00000000, 0.00000000, 0.00000000, 0.00000000, 0.00000000, 0.00000000, 0.00000000, 0.00000000, 0.00000000, 0.00000000, 0.00000000, -0.65549999, -0.20220000, 0.70929998, 0.16139999, 0.06700000, -0.07700001, -0.09500001, 0.00000000, 0.00000000, 0.00000000, 0.00000000
1, 3.0500, 305, 0.00000000, 0.00000000, 0.00000000, 0.00000000, 0.00000000, 0.00000000, 0.00000000, 0.00000000, 0.00000000, 0.00000000, 0.00000000, 0.00000000, -0.65429997, -0.20310000, 0.70940000, 0.16489999, 0.05200000, -0.04000000, -0.09300000, 0.00000000, 0.00000000, 0.00000000, 0.00000000
1, 3.0600, 306, 0.00000000, 0.00000000, 0.00000000, 0.00000000, 0.00000000, 0.00000000, 0.00000000, 0.00000000, 0.00000000, 0.00000000, 0.00000000, 0.00000000, -0.65319997, -0.20400000, 0.70929998, 0.16869999, 0.04900000, -0.02500000, -0.08200000, 0.00000000, 0.00000000, 0.00000000, 0.00000000
1, 3.0700, 307, 0.00000000, 0.00000000, 0.00000000, 0.00000000, 0.00000000, 0.00000000, 0.00000000, 0.00000000, 0.00000000, 0.00000000, 0.00000000, 0.00000000, -0.65200001, -0.20479999, 0.70919997, 0.17270000, 0.04600000, -0.02300000, -0.07900000, 0.00000000, 0.00000000, 0.00000000, 0.00000000
1, 3.0800, 308, 0.00000000, 0.00000000, 0.00000000, 0.00000000, 0.00000000, 0.00000000, 0.00000000, 0.00000000, 0.00000000, 0.00000000, 0.00000000, 0.00000000, -0.65090001, -0.20559999, 0.70879996, 0.17710000, 0.03500000, -0.02700000, -0.06800000, 0.00000000, 0.00000000, 0.00000000, 0.00000000
1, 3.0900, 309, 0.00000000, 0.00000000, 0.00000000, 0.00000000, 0.00000000, 0.00000000, 0.00000000, 0.00000000, 0.00000000, 0.00000000, 0.00000000, 0.00000000, -0.64989996, -0.20639999, 0.70840001, 0.18189999, 0.03300000, -0.04700000, -0.06000000, 0.00000000, 0.00000000, 0.00000000, 0.00000000
1, 3.1000, 310, 0.00000000, 0.00000000, 0.00000000, 0.00000000, 0.00000000, 0.00000000, 0.00000000, 0.00000000, 0.00000000, 0.00000000, 0.00000000, 0.00000000, -0.64870000, -0.20719999, 0.70800000, 0.18689999, 0.03600000, -0.06900001, -0.06200000, 0.00000000, 0.00000000, 0.00000000, 0.00000000
1, 3.1100, 311, 0.00000000, 0.00000000, 0.00000000, 0.00000000, 0.00000000, 0.00000000, 0.00000000, 0.00000000, 0.00000000, 0.00000000, 0.00000000, 0.00000000, -0.64739996, -0.20780000, 0.70749998, 0.19219999, 0.03400000, -0.08700000, -0.06200000, 0.00000000, 0.00000000, 0.00000000, 0.00000000
1, 3.1200, 312, 0.00000000, 0.00000000, 0.00000000, 0.00000000, 0.00000000, 0.00000000, 0.00000000, 0.00000000, 0.00000000, 0.00000000, 0.00000000, 0.00000000, -0.64620000, -0.20819999, 0.70699996, 0.19759999, 0.03200000, -0.09100001, -0.04900000, 0.00000000, 0.00000000, 0.00000000, 0.00000000
1, 3.1300, 313, 0.00000000, 0.00000000, 0.00000000, 0.00000000, 0.00000000, 0.00000000, 0.00000000, 0.00000000, 0.00000000, 0.00000000, 0.00000000, 0.00000000, -0.64510000, -0.20840000, 0.70639998, 0.20340000, 0.04000000, -0.09000000, -0.04100000, 0.00000000, 0.00000000, 0.00000000, 0.00000000
1, 3.1400, 314, 0.00000000, 0.00000000, 0.00000000, 0.00000000, 0.00000000, 0.00000000, 0.00000000, 0.00000000, 0.00000000, 0.00000000, 0.00000000, 0.00000000, -0.64410001, -0.20860000, 0.70539999, 0.20950000, 0.05900000, -0.10000000, -0.04200000, 0.00000000, 0.00000000, 0.00000000, 0.00000000
1, 3.1500, 315, 0.00000000, 0.00000000, 0.00000000, 0.00000000, 0.00000000, 0.00000000, 0.00000000, 0.00000000, 0.00000000, 0.00000000, 0.00000000, 0.00000000, -0.64309996, -0.20879999, 0.70429999, 0.21599999, 0.06900001, -0.11400001, -0.03800000, 0.00000000, 0.00000000, 0.00000000, 0.00000000
1, 3.1600, 316, 0.00000000, 0.00000000, 0.00000000, 0.00000000, 0.00000000, 0.00000000, 0.00000000, 0.00000000, 0.00000000, 0.00000000, 0.00000000, 0.00000000, -0.64209998, -0.20899999, 0.70309997, 0.22260000, 0.07400000, -0.13300000, -0.02700000, 0.00000000, 0.00000000, 0.00000000, 0.00000000
1, 3.1700, 317, 0.00000000, 0.00000000, 0.00000000, 0.00000000, 0.00000000, 0.00000000, 0.00000000, 0.00000000, 0.00000000, 0.00000000, 0.00000000, 0.00000000, -0.64099997, -0.20950000, 0.70169997, 0.22929999, 0.07500000, -0.13900001, -0.02000000, 0.00000000, 0.00000000, 0.00000000, 0.00000000
1, 3.1800, 318, 0.00000000, 0.00000000, 0.00000000, 0.00000000, 0.00000000, 0.00000000, 0.00000000, 0.00000000, 0.00000000, 0.00000000, 0.00000000, 0.00000000, -0.64010000, -0.20999999, 0.70019996, 0.23619999, 0.07300001, -0.15300001, -0.00800000, 0.00000000, 0.00000000, 0.00000000, 0.00000000
1, 3.1900, 319, 0.00000000, 0.00000000, 0.00000000, 0.00000000, 0.00000000, 0.00000000, 0.00000000, 0.00000000, 0.00000000, 0.00000000, 0.00000000, 0.00000000, -0.63909996, -0.21069999, 0.69830000, 0.24339999, 0.07300001, -0.17000000, 0.00800000, 0.00000000, 0.00000000, 0.00000000, 0.00000000
1, 3.2000, 320, 0.00000000, 0.00000000, 0.00000000, 0.00000000, 0.00000000, 0.00000000, 0.00000000, 0.00000000, 0.00000000, 0.00000000, 0.00000000, 0.00000000, -0.63830000, -0.21159999, 0.69619995, 0.25079998, 0.07400000, -0.18600000, 0.01700000, 0.00000000, 0.00000000, 0.00000000, 0.00000000
1, 3.2100, 321, 0.00000000, 0.00000000, 0.00000000, 0.00000000, 0.00000000, 0.00000000, 0.00000000, 0.00000000, 0.00000000, 0.00000000, 0.00000000, 0.00000000, -0.63749999, -0.21259999, 0.69389999, 0.25830001, 0.07000000, -0.18600000, 0.01500000, 0.00000000, 0.00000000, 0.00000000, 0.00000000
1, 3.2200, 322, 0.00000000, 0.00000000, 0.00000000, 0.00000000, 0.00000000, 0.00000000, 0.00000000, 0.00000000, 0.00000000, 0.00000000, 0.00000000, 0.00000000, -0.63679999, -0.21349999, 0.69150001, 0.26549998, 0.05200000, -0.18400002, 0.01600000, 0.00000000, 0.00000000, 0.00000000, 0.00000000
1, 3.2300, 323, 0.00000000, 0.00000000, 0.00000000, 0.00000000, 0.00000000, 0.00000000, 0.00000000, 0.00000000, 0.00000000, 0.00000000, 0.00000000, 0.00000000, -0.63620001, -0.21450000, 0.68900001, 0.27249998, 0.05400000, -0.18400002, 0.03700000, 0.00000000, 0.00000000, 0.00000000, 0.00000000
1, 3.2400, 324, 0.00000000, 0.00000000, 0.00000000, 0.00000000, 0.00000000, 0.00000000, 0.00000000, 0.00000000, 0.00000000, 0.00000000, 0.00000000, 0.00000000, -0.63589996, -0.21540000, 0.68610001, 0.27980000, 0.06900001, -0.18200001, 0.06900001, 0.00000000, 0.00000000, 0.00000000, 0.00000000
1, 3.2500, 325, 0.00000000, 0.00000000, 0.00000000, 0.00000000, 0.00000000, 0.00000000, 0.00000000, 0.00000000, 0.00000000, 0.00000000, 0.00000000, 0.00000000, -0.63580000, -0.21640000, 0.68269998, 0.28759998, 0.09300000, -0.19000001, 0.08200000, 0.00000000, 0.00000000, 0.00000000, 0.00000000
1, 3.2600, 326, 0.00000000, 0.00000000, 0.00000000, 0.00000000, 0.00000000, 0.00000000, 0.00000000, 0.00000000, 0.00000000, 0.00000000, 0.00000000, 0.00000000, -0.63569999, -0.21720000, 0.67899996, 0.29580000, 0.10700001, -0.21100001, 0.06400000, 0.00000000, 0.00000000, 0.00000000, 0.00000000
1, 3.2700, 327, 0.00000000, 0.00000000, 0.00000000, 0.00000000, 0.00000000, 0.00000000, 0.00000000, 0.00000000, 0.00000000, 0.00000000, 0.00000000, 0.00000000, -0.63569999, -0.21779999, 0.67519999, 0.30390000, 0.10000000, -0.23300001, 0.04000000, 0.00000000, 0.00000000, 0.00000000, 0.00000000
1, 3.2800, 328, 0.00000000, 0.00000000, 0.00000000, 0.00000000, 0.00000000, 0.00000000, 0.00000000, 0.00000000, 0.00000000, 0.00000000, 0.00000000, 0.00000000, -0.63569999, -0.21820000, 0.67149997, 0.31169999, 0.10200001, -0.25200000, 0.02500000, 0.00000000, 0.00000000, 0.00000000, 0.00000000
1, 3.2900, 329, 0.00000000, 0.00000000, 0.00000000, 0.00000000, 0.00000000, 0.00000000, 0.00000000, 0.00000000, 0.00000000, 0.00000000, 0.00000000, 0.00000000, -0.63559997, -0.21859999, 0.66769999, 0.31959999, 0.10100000, -0.24100001, 0.01000000, 0.00000000, 0.00000000, 0.00000000, 0.00000000
1, 3.3000, 330, 0.00000000, 0.00000000, 0.00000000, 0.00000000, 0.00000000, 0.00000000, 0.00000000, 0.00000000, 0.00000000, 0.00000000, 0.00000000, 0.00000000, -0.63549995, -0.21900000, 0.66389996, 0.32760000, 0.08800001, -0.20600002, -0.00600000, 0.00000000, 0.00000000, 0.00000000, 0.00000000
1, 3.3100, 331, 0.00000000, 0.00000000, 0.00000000, 0.00000000, 0.00000000, 0.00000000, 0.00000000, 0.00000000, 0.00000000, 0.00000000, 0.00000000, 0.00000000, -0.63510001, -0.21990000, 0.65990001, 0.33559999, 0.06700000, -0.16400000, -0.01700000, 0.00000000, 0.00000000, 0.00000000, 0.00000000
1, 3.3200, 332, 0.00000000, 0.00000000, 0.00000000, 0.00000000, 0.00000000, 0.00000000, 0.00000000, 0.00000000, 0.00000000, 0.00000000, 0.00000000, 0.00000000, -0.63459998, -0.22109999, 0.65590000, 0.34349999, 0.04500000, -0.12600000, -0.02200000, 0.00000000, 0.00000000, 0.00000000, 0.00000000
1, 3.3300, 333, 0.00000000, 0.00000000, 0.00000000, 0.00000000, 0.00000000, 0.00000000, 0.00000000, 0.00000000, 0.00000000, 0.00000000, 0.00000000, 0.00000000, -0.63400000, -0.22270000, 0.65179998, 0.35139999, 0.03100000, -0.12000000, -0.01000000, 0.00000000, 0.00000000, 0.00000000, 0.00000000
1, 3.3400, 334, 0.00000000, 0.00000000, 0.00000000, 0.00000000, 0.00000000, 0.00000000, 0.00000000, 0.00000000, 0.00000000, 0.00000000, 0.00000000, 0.00000000, -0.63339996, -0.22459999, 0.64739996, 0.35929999, 0.03100000, -0.08800001, -0.01000000, 0.00000000, 0.00000000, 0.00000000, 0.00000000
1, 3.3500, 335, 0.00000000, 0.00000000, 0.00000000, 0.00000000, 0.00000000, 0.00000000, 0.00000000, 0.00000000, 0.00000000, 0.00000000, 0.00000000, 0.00000000, -0.63269997, -0.22669999, 0.64289999, 0.36710000, 0.03400000, -0.05800000, -0.01800000, 0.00000000, 0.00000000, 0.00000000, 0.00000000
1, 3.3600, 336, 0.00000000, 0.00000000, 0.00000000, 0.00000000, 0.00000000, 0.00000000, 0.00000000, 0.00000000, 0.00000000, 0.00000000, 0.00000000, 0.00000000, -0.63190001, -0.22899999, 0.63849998, 0.37469998, 0.02800000, -0.03800000, -0.02300000, 0.00000000, 0.00000000, 0.00000000, 0.00000000
1, 3.3700, 337, 0.00000000, 0.00000000, 0.00000000, 0.00000000, 0.00000000, 0.00000000, 0.00000000, 0.00000000, 0.00000000, 0.00000000, 0.00000000, 0.00000000, -0.63089997, -0.23130000, 0.63429999, 0.38200000, 0.03000000, -0.02600000, -0.02400000, 0.00000000, 0.00000000, 0.00000000, 0.00000000
1, 3.3800, 338, 0.00000000, 0.00000000, 0.00000000, 0.00000000, 0.00000000, 0.00000000, 0.00000000, 0.00000000, 0.00000000, 0.00000000, 0.00000000, 0.00000000, -0.62970001, -0.23379999, 0.63029999, 0.38900000, 0.01700000, 0.01400000, -0.01100000, 0.00000000, 0.00000000, 0.00000000, 0.00000000
1, 3.3900, 339, 0.00000000, 0.00000000, 0.00000000, 0.00000000, 0.00000000, 0.00000000, 0.00000000, 0.00000000, 0.00000000, 0.00000000, 0.00000000, 0.00000000, -0.62830001, -0.23629999, 0.62659997, 0.39559999, 0.02200000, 0.05000000, 0.00900000, 0.00000000, 0.00000000, 0.00000000, 0.00000000
1, 3.4000, 340, 0.00000000, 0.00000000, 0.00000000, 0.00000000, 0.00000000, 0.00000000, 0.00000000, 0.00000000, 0.00000000, 0.00000000, 0.00000000, 0.00000000, -0.62680000, -0.23869999, 0.62320000, 0.40199998, 0.00900000, 0.05300000, 0.02200000, 0.00000000, 0.00000000, 0.00000000, 0.00000000
1, 3.4100, 341, 0.00000000, 0.00000000, 0.00000000, 0.00000000, 0.00000000, 0.00000000, 0.00000000, 0.00000000, 0.00000000, 0.00000000, 0.00000000, 0.00000000, -0.62519997, -0.24100000, 0.61989999, 0.40820000, 0.00800000, 0.03300000, 0.04300000, 0.00000000, 0.00000000, 0.00000000, 0.00000000
1, 3.4200, 342, 0.00000000, 0.00000000, 0.00000000, 0.00000000, 0.00000000, 0.00000000, 0.00000000, 0.00000000, 0.00000000, 0.00000000, 0.00000000, 0.00000000, -0.62360001, -0.24329999, 0.61659998, 0.41419998, 0.00800000, 0.02800000, 0.04400000, 0.00000000, 0.00000000, 0.00000000, 0.00000000
1, 3.4300, 343, 0.00000000, 0.00000000, 0.00000000, 0.00000000, 0.00000000, 0.00000000, 0.00000000, 0.00000000, 0.00000000, 0.00000000, 0.00000000, 0.00000000, -0.62189996, -0.24550000, 0.61339998, 0.41999999, 0.01100000, 0.01400000, 0.02700000, 0.00000000, 0.00000000, 0.00000000, 0.00000000
1, 3.4400, 344, 0.00000000, 0.00000000, 0.00000000, 0.00000000, 0.00000000, 0.00000000, 0.00000000, 0.00000000, 0.00000000, 0.00000000, 0.00000000, 0.00000000, -0.62029999, -0.24749999, 0.61039996, 0.42559999, 0.00700000, 0.01300000, -0.01000000, 0.00000000, 0.00000000, 0.00000000, 0.00000000
1, 3.4500, 345, 0.00000000, 0.00000000, 0.00000000, 0.00000000, 0.00000000, 0.00000000, 0.00000000, 0.00000000, 0.00000000, 0.00000000, 0.00000000, 0.00000000, -0.61869997, -0.24929999, 0.60740000, 0.43109998, -0.01700000, 0.05000000, -0.02900000, 0.00000000, 0.00000000, 0.00000000, 0.00000000
1, 3.4600, 346, 0.00000000, 0.00000000, 0.00000000, 0.00000000, 0.00000000, 0.00000000, 0.00000000, 0.00000000, 0.00000000, 0.00000000, 0.00000000, 0.00000000, -0.61699998, -0.25110000, 0.60420001, 0.43709999, -0.04700000, 0.06400000, -0.00800000, 0.00000000, 0.00000000, 0.00000000, 0.00000000
1, 3.4700, 347, 0.00000000, 0.00000000, 0.00000000, 0.00000000, 0.00000000, 0.00000000, 0.00000000, 0.00000000, 0.00000000, 0.00000000, 0.00000000, 0.00000000, -0.61500001, -0.25259998, 0.60060000, 0.44380000, -0.06800000, 0.05500000, 0.02300000, 0.00000000, 0.00000000, 0.00000000, 0.00000000
1, 3.4800, 348, 0.00000000, 0.00000000, 0.00000000, 0.00000000, 0.00000000, 0.00000000, 0.00000000, 0.00000000, 0.00000000, 0.00000000, 0.00000000, 0.00000000, -0.61299998, -0.25400001, 0.59700000, 0.45069999, -0.07800000, 0.05100000, 0.04200000, 0.00000000, 0.00000000, 0.00000000, 0.00000000
1, 3.4900, 349, 0.00000000, 0.00000000, 0.00000000, 0.00000000, 0.00000000, 0.00000000, 0.00000000, 0.00000000, 0.00000000, 0.00000000, 0.00000000, 0.00000000, -0.61070001, -0.25540000, 0.59349996, 0.45760000, -0.07700001, 0.07200000, -0.00100000, 0.00000000, 0.00000000, 0.00000000, 0.00000000
1, 3.5000, 350, 0.00000000, 0.00000000, 0.00000000, 0.00000000, 0.00000000, 0.00000000, 0.00000000, 0.00000000, 0.00000000, 0.00000000, 0.00000000, 0.00000000, -0.60829997, -0.25689998, 0.58980000, 0.46460000, -0.05400000, 0.08500000, -0.05300000, 0.00000000, 0.00000000, 0.00000000, 0.00000000
1, 3.5100, 351, 0.00000000, 0.00000000, 0.00000000, 0.00000000, 0.00000000, 0.00000000, 0.00000000, 0.00000000, 0.00000000, 0.00000000, 0.00000000, 0.00000000, -0.60589999, -0.25869998, 0.58569998, 0.47189999, -0.04000000, 0.08000001, -0.06700000, 0.00000000, 0.00000000, 0.00000000, 0.00000000
1, 3.5200, 352, 0.00000000, 0.00000000, 0.00000000, 0.00000000, 0.00000000, 0.00000000, 0.00000000, 0.00000000, 0.00000000, 0.00000000, 0.00000000, 0.00000000, -0.60359997, -0.26069999, 0.58090001, 0.47970000, -0.03100000, 0.08200000, -0.07400000, 0.00000000, 0.00000000, 0.00000000, 0.00000000
1, 3.5300, 353, 0.00000000, 0.00000000, 0.00000000, 0.00000000, 0.00000000, 0.00000000, 0.00000000, 0.00000000, 0.00000000, 0.00000000, 0.00000000, 0.00000000, -0.60159999, -0.26269999, 0.57539999, 0.48760000, -0.03300000, 0.08800001, 0.00000000, 0.00000000, 0.00000000, 0.00000000, 0.00000000
1, 3.5400, 354, 0.00000000, 0.00000000, 0.00000000, 0.00000000, 0.00000000, 0.00000000, 0.00000000, 0.00000000, 0.00000000, 0.00000000, 0.00000000, 0.00000000, -0.60009998, -0.26420000, 0.56959999, 0.49539998, -0.04000000, 0.08800001, 0.04300000, 0.00000000, 0.00000000, 0.00000000, 0.00000000
1, 3.5500, 355, 0.00000000, 0.00000000, 0.00000000, 0.00000000, 0.00000000, 0.00000000, 0.00000000, 0.00000000, 0.00000000, 0.00000000, 0.00000000, 0.00000000, -0.59929997, -0.26539999, 0.56349999, 0.50260001, -0.00900000, 0.06700000, 0.04800000, 0.00000000, 0.00000000, 0.00000000, 0.00000000
1, 3.5600, 356, 0.00000000, 0.00000000, 0.00000000, 0.00000000, 0.00000000, 0.00000000, 0.00000000, 0.00000000, 0.00000000, 0.00000000, 0.00000000, 0.00000000, -0.59869999, -0.26659998, 0.55769998, 0.50909996, 0.02500000, 0.02500000, 0.06100000, 0.00000000, 0.00000000, 0.00000000, 0.00000000
1, 3.5700, 357, 0.00000000, 0.00000000, 0.00000000, 0.00000000, 0.00000000, 0.00000000, 0.00000000, 0.00000000, 0.00000000, 0.00000000, 0.00000000, 0.00000000, -0.59810001, -0.26809999, 0.55239999, 0.51480001, 0.06200000, 0.01900000, 0.04400000, 0.00000000, 0.00000000, 0.00000000, 0.00000000
1, 3.5800, 358, 0.00000000, 0.00000000, 0.00000000, 0.00000000, 0.00000000, 0.00000000, 0.00000000, 0.00000000, 0.00000000, 0.00000000, 0.00000000, 0.00000000, -0.59700000, -0.27030000, 0.54769999, 0.51989996, 0.10300001, 0.04600000, 0.00100000, 0.00000000, 0.00000000, 0.00000000, 0.00000000
1, 3.5900, 359, 0.00000000, 0.00000000, 0.00000000, 0.00000000, 0.00000000, 0.00000000, 0.00000000, 0.00000000, 0.00000000, 0.00000000, 0.00000000, 0.00000000, -0.59560001, -0.27289999, 0.54329997, 0.52469999, 0.11000001, 0.04300000, 0.00400000, 0.00000000, 0.00000000, 0.00000000, 0.00000000
1, 3.6000, 360, 0.00000000, 0.00000000, 0.00000000, 0.00000000, 0.00000000, 0.00000000, 0.00000000, 0.00000000, 0.00000000, 0.00000000, 0.00000000, 0.00000000, -0.59439999, -0.27519998, 0.53939998, 0.52899998, 0.06600000, 0.05700000, 0.10000000, 0.00000000, 0.00000000, 0.00000000, 0.00000000
1, 3.6100, 361, 0.00000000, 0.00000000, 0.00000000, 0.00000000, 0.00000000, 0.00000000, 0.00000000, 0.00000000, 0.00000000, 0.00000000, 0.00000000, 0.00000000, -0.59389997, -0.27609998, 0.53609997, 0.53240001, -0.01100000, 0.06700000, 0.07200000, 0.00000000, 0.00000000, 0.00000000, 0.00000000
1, 3.6200, 362, 0.00000000, 0.00000000, 0.00000000, 0.00000000, 0.00000000, 0.00000000, 0.00000000, 0.00000000, 0.00000000, 0.00000000, 0.00000000, 0.00000000, -0.59369999, -0.27660000, 0.53289998, 0.53569996, -0.01400000, 0.03700000, 0.00900000, 0.00000000, 0.00000000, 0.00000000, 0.00000000
1, 3.6300, 363, 0.00000000, 0.00000000, 0.00000000, 0.00000000, 0.00000000, 0.00000000, 0.00000000, 0.00000000, 0.00000000, 0.00000000, 0.00000000, 0.00000000, -0.59349996, -0.27699998, 0.52950001, 0.53889996, 0.00000000, 0.06900001, 0.01800000, 0.00000000, 0.00000000, 0.00000000, 0.00000000
1, 3.6400, 364, 0.00000000, 0.00000000, 0.00000000, 0.00000000, 0.00000000, 0.00000000, 0.00000000, 0.00000000, 0.00000000, 0.00000000, 0.00000000, 0.00000000, -0.59329998, -0.27789998, 0.52579999, 0.54240000, 0.06700000, 0.09100001, -0.01000000, 0.00000000, 0.00000000, 0.00000000, 0.00000000
1, 3.6500, 365, 0.00000000, 0.00000000, 0.00000000, 0.00000000, 0.00000000, 0.00000000, 0.00000000, 0.00000000, 0.00000000, 0.00000000, 0.00000000, 0.00000000, -0.59259999, -0.27939999, 0.52169997, 0.54619998, 0.11100001, 0.06900001, -0.02400000, 0.00000000, 0.00000000, 0.00000000, 0.00000000
1, 3.6600, 366, 0.00000000, 0.00000000, 0.00000000, 0.00000000, 0.00000000, 0.00000000, 0.00000000, 0.00000000, 0.00000000, 0.00000000, 0.00000000, 0.00000000, -0.59139997, -0.28180000, 0.51730001, 0.55049998, 0.14200000, 0.03700000, -0.04800000, 0.00000000, 0.00000000, 0.00000000, 0.00000000
1, 3.6700, 367, 0.00000000, 0.00000000, 0.00000000, 0.00000000, 0.00000000, 0.00000000, 0.00000000, 0.00000000, 0.00000000, 0.00000000, 0.00000000, 0.00000000, -0.58959997, -0.28500000, 0.51269996, 0.55500001, 0.12400001, 0.00100000, -0.08100000, 0.00000000, 0.00000000, 0.00000000, 0.00000000
1, 3.6800, 368, 0.00000000, 0.00000000, 0.00000000, 0.00000000, 0.00000000, 0.00000000, 0.00000000, 0.00000000, 0.00000000, 0.00000000, 0.00000000, 0.00000000, -0.58749998, -0.28889999, 0.50800002, 0.55960000, 0.08800001, -0.01600000, -0.09400000, 0.00000000, 0.00000000, 0.00000000, 0.00000000
1, 3.6900, 369, 0.00000000, 0.00000000, 0.00000000, 0.00000000, 0.00000000, 0.00000000, 0.00000000, 0.00000000, 0.00000000, 0.00000000, 0.00000000, 0.00000000, -0.58499998, -0.29299998, 0.50330001, 0.56430000, 0.05500000, -0.04000000, -0.08700000, 0.00000000, 0.00000000, 0.00000000, 0.00000000
1, 3.7000, 370, 0.00000000, 0.00000000, 0.00000000, 0.00000000, 0.00000000, 0.00000000, 0.00000000, 0.00000000, 0.00000000, 0.00000000, 0.00000000, 0.00000000, -0.58249998, -0.29729998, 0.49869999, 0.56869996, 0.02900000, -0.06000000, -0.07500000, 0.00000000, 0.00000000, 0.00000000, 0.00000000
1, 3.7100, 371, 0.00000000, 0.00000000, 0.00000000, 0.00000000, 0.00000000, 0.00000000, 0.00000000, 0.00000000, 0.00000000, 0.00000000, 0.00000000, 0.00000000, -0.57989997, -0.30170000, 0.49409997, 0.57300001, 0.02500000, -0.07900000, -0.07300001, 0.00000000, 0.00000000, 0.00000000, 0.00000000
1, 3.7200, 372, 0.00000000, 0.00000000, 0.00000000, 0.00000000, 0.00000000, 0.00000000, 0.00000000, 0.00000000, 0.00000000, 0.00000000, 0.00000000, 0.00000000, -0.57730001, -0.30640000, 0.48940000, 0.57709998, 0.03200000, -0.10200001, 0.02200000, 0.00000000, 0.00000000, 0.00000000, 0.00000000
1, 3.7300, 373, 0.00000000, 0.00000000, 0.00000000, 0.00000000, 0.00000000, 0.00000000, 0.00000000, 0.00000000, 0.00000000, 0.00000000, 0.00000000, 0.00000000, -0.57499999, -0.31110001, 0.48449999, 0.58109999, 0.02700000, -0.10400000, 0.05100000, 0.00000000, 0.00000000, 0.00000000, 0.00000000
1, 3.7400, 374, 0.00000000, 0.00000000, 0.00000000, 0.00000000, 0.00000000, 0.00000000, 0.00000000, 0.00000000, 0.00000000, 0.00000000, 0.00000000, 0.00000000, -0.57260001, -0.31590000, 0.47979999, 0.58480000, 0.02500000, -0.08900000, 0.02800000, 0.00000000, 0.00000000, 0.00000000, 0.00000000
1, 3.7500, 375, 0.00000000, 0.00000000, 0.00000000, 0.00000000, 0.00000000, 0.00000000, 0.00000000, 0.00000000, 0.00000000, 0.00000000, 0.00000000, 0.00000000, -0.57019997, -0.32069999, 0.47529998, 0.58809996, 0.03000000, -0.09600000, 0.01800000, 0.00000000, 0.00000000, 0.00000000, 0.00000000
1, 3.7600, 376, 0.00000000, 0.00000000, 0.00000000, 0.00000000, 0.00000000, 0.00000000, 0.00000000, 0.00000000, 0.00000000, 0.00000000, 0.00000000, 0.00000000, -0.56799996, -0.32549998, 0.47110000, 0.59109998, 0.02500000, -0.09200001, 0.04700000, 0.00000000, 0.00000000, 0.00000000, 0.00000000
1, 3.7700, 377, 0.00000000, 0.00000000, 0.00000000, 0.00000000, 0.00000000, 0.00000000, 0.00000000, 0.00000000, 0.00000000, 0.00000000, 0.00000000, 0.00000000, -0.56580001, -0.32999998, 0.46699998, 0.59389997, 0.02100000, -0.06400000, 0.02400000, 0.00000000, 0.00000000, 0.00000000, 0.00000000
1, 3.7800, 378, 0.00000000, 0.00000000, 0.00000000, 0.00000000, 0.00000000, 0.00000000, 0.00000000, 0.00000000, 0.00000000, 0.00000000, 0.00000000, 0.00000000, -0.56369996, -0.33419999, 0.46320000, 0.59639996, 0.02200000, -0.04400000, 0.00900000, 0.00000000, 0.00000000, 0.00000000, 0.00000000
1, 3.7900, 379, 0.00000000, 0.00000000, 0.00000000, 0.00000000, 0.00000000, 0.00000000, 0.00000000, 0.00000000, 0.00000000, 0.00000000, 0.00000000, 0.00000000, -0.56189996, -0.33809999, 0.45979998, 0.59859997, 0.03200000, -0.02900000, -0.01100000, 0.00000000, 0.00000000, 0.00000000, 0.00000000
1, 3.8000, 380, 0.00000000, 0.00000000, 0.00000000, 0.00000000, 0.00000000, 0.00000000, 0.00000000, 0.00000000, 0.00000000, 0.00000000, 0.00000000, 0.00000000, -0.56009996, -0.34160000, 0.45690000, 0.60049999, 0.04600000, -0.01100000, -0.05700000, 0.00000000, 0.00000000, 0.00000000, 0.00000000
1, 3.8100, 381, 0.00000000, 0.00000000, 0.00000000, 0.00000000, 0.00000000, 0.00000000, 0.00000000, 0.00000000, 0.00000000, 0.00000000, 0.00000000, 0.00000000, -0.55839998, -0.34500000, 0.45409998, 0.60229999, 0.04900000, 0.01800000, -0.06500001, 0.00000000, 0.00000000, 0.00000000, 0.00000000
1, 3.8200, 382, 0.00000000, 0.00000000, 0.00000000, 0.00000000, 0.00000000, 0.00000000, 0.00000000, 0.00000000, 0.00000000, 0.00000000, 0.00000000, 0.00000000, -0.55649996, -0.34829998, 0.45099998, 0.60439998, 0.05600000, 0.03100000, -0.03900000, 0.00000000, 0.00000000, 0.00000000, 0.00000000
1, 3.8300, 383, 0.00000000, 0.00000000, 0.00000000, 0.00000000, 0.00000000, 0.00000000, 0.00000000, 0.00000000, 0.00000000, 0.00000000, 0.00000000, 0.00000000, -0.55460000, -0.35169998, 0.44790000, 0.60659999, 0.06000000, 0.05800000, 0.06300000, 0.00000000, 0.00000000, 0.00000000, 0.00000000
1, 3.8400, 384, 0.00000000, 0.00000000, 0.00000000, 0.00000000, 0.00000000, 0.00000000, 0.00000000, 0.00000000, 0.00000000, 0.00000000, 0.00000000, 0.00000000, -0.55259997, -0.35490000, 0.44549999, 0.60829997, 0.04400000, 0.06700000, 0.05600000, 0.00000000, 0.00000000, 0.00000000, 0.00000000
1, 3.8500, 385, 0.00000000, 0.00000000, 0.00000000, 0.00000000, 0.00000000, 0.00000000, 0.00000000, 0.00000000, 0.00000000, 0.00000000, 0.00000000, 0.00000000, -0.55079997, -0.35799998, 0.44349998, 0.60960001, 0.05600000, 0.00800000, 0.00400000, 0.00000000, 0.00000000, 0.00000000, 0.00000000
1, 3.8600, 386, 0.00000000, 0.00000000, 0.00000000, 0.00000000, 0.00000000, 0.00000000, 0.00000000, 0.00000000, 0.00000000, 0.00000000, 0.00000000, 0.00000000, -0.54920000, -0.36109999, 0.44159999, 0.61059999, 0.06400000, -0.04500000, -0.00200000, 0.00000000, 0.00000000, 0.00000000, 0.00000000
1, 3.8700, 387, 0.00000000, 0.00000000, 0.00000000, 0.00000000, 0.00000000, 0.00000000, 0.00000000, 0.00000000, 0.00000000, 0.00000000, 0.00000000, 0.00000000, -0.54769999, -0.36399999, 0.43969998, 0.61159998, 0.06900001, -0.01300000, 0.00000000, 0.00000000, 0.00000000, 0.00000000, 0.00000000
1, 3.8800, 388, 0.00000000, 0.00000000, 0.00000000, 0.00000000, 0.00000000, 0.00000000, 0.00000000, 0.00000000, 0.00000000, 0.00000000, 0.00000000, 0.00000000, -0.54629999, -0.36669999, 0.43799999, 0.61250001, 0.07200000, 0.01200000, -0.01600000, 0.00000000, 0.00000000, 0.00000000, 0.00000000
1, 3.8900, 389, 0.00000000, 0.00000000, 0.00000000, 0.00000000, 0.00000000, 0.00000000, 0.00000000, 0.00000000, 0.00000000, 0.00000000, 0.00000000, 0.00000000, -0.54469997, -0.36960000, 0.43649998, 0.61320001, 0.06700000, 0.05900000, -0.06400000, 0.00000000, 0.00000000, 0.00000000, 0.00000000
1, 3.9000, 390, 0.00000000, 0.00000000, 0.00000000, 0.00000000, 0.00000000, 0.00000000, 0.00000000, 0.00000000, 0.00000000, 0.00000000, 0.00000000, 0.00000000, -0.54289997, -0.37279999, 0.43480000, 0.61399996, 0.05500000, 0.10300001, -0.08800001, 0.00000000, 0.00000000, 0.00000000, 0.00000000
1, 3.9100, 391, 0.00000000, 0.00000000, 0.00000000, 0.00000000, 0.00000000, 0.00000000, 0.00000000, 0.00000000, 0.00000000, 0.00000000, 0.00000000, 0.00000000, -0.54089999, -0.37629998, 0.43279999, 0.61500001, 0.05900000, 0.17800000, -0.08700000, 0.00000000, 0.00000000, 0.00000000, 0.00000000
1, 3.9200, 392, 0.00000000, 0.00000000, 0.00000000, 0.00000000, 0.00000000, 0.00000000, 0.00000000, 0.00000000, 0.00000000, 0.00000000, 0.00000000, 0.00000000, -0.53829998, -0.38069999, 0.42989999, 0.61669999, 0.08400001, 0.25500003, -0.09400000, 0.00000000, 0.00000000, 0.00000000, 0.00000000
1, 3.9300, 393, 0.00000000, 0.00000000, 0.00000000, 0.00000000, 0.00000000, 0.00000000, 0.00000000, 0.00000000, 0.00000000, 0.00000000, 0.00000000, 0.00000000, -0.53499997, -0.38580000, 0.42649999, 0.61879998, 0.08200000, 0.28800002, -0.05800000, 0.00000000, 0.00000000, 0.00000000, 0.00000000
1, 3.9400, 394, 0.00000000, 0.00000000, 0.00000000, 0.00000000, 0.00000000, 0.00000000, 0.00000000, 0.00000000, 0.00000000, 0.00000000, 0.00000000, 0.00000000, -0.53119999, -0.39129999, 0.42260000, 0.62119997, 0.05100000, 0.29100001, 0.00400000, 0.00000000, 0.00000000, 0.00000000, 0.00000000
1, 3.9500, 395, 0.00000000, 0.00000000, 0.00000000, 0.00000000, 0.00000000, 0.00000000, 0.00000000, 0.00000000, 0.00000000, 0.00000000, 0.00000000, 0.00000000, -0.52709997, -0.39710000, 0.41830000, 0.62390000, 0.02600000, 0.20800000, 0.04100000, 0.00000000, 0.00000000, 0.00000000, 0.00000000
1, 3.9600, 396, 0.00000000, 0.00000000, 0.00000000, 0.00000000, 0.00000000, 0.00000000, 0.00000000, 0.00000000, 0.00000000, 0.00000000, 0.00000000, 0.00000000, -0.52289999, -0.40329999, 0.41349998, 0.62669998, 0.00400000, 0.03100000, -0.03700000, 0.00000000, 0.00000000, 0.00000000, 0.00000000
1, 3.9700, 397, 0.00000000, 0.00000000, 0.00000000, 0.00000000, 0.00000000, 0.00000000, 0.00000000, 0.00000000, 0.00000000, 0.00000000, 0.00000000, 0.00000000, -0.51859999, -0.40979999, 0.40899998, 0.62900001, -0.00900000, -0.19300000, -0.11200000, 0.00000000, 0.00000000, 0.00000000, 0.00000000
1, 3.9800, 398, 0.00000000, 0.00000000, 0.00000000, 0.00000000, 0.00000000, 0.00000000, 0.00000000, 0.00000000, 0.00000000, 0.00000000, 0.00000000, 0.00000000, -0.51489997, -0.41599998, 0.40489998, 0.63069999, 0.00800000, -0.28200001, -0.07800000, 0.00000000, 0.00000000, 0.00000000, 0.00000000
1, 3.9900, 399, 0.00000000, 0.00000000, 0.00000000, 0.00000000, 0.00000000, 0.00000000, 0.00000000, 0.00000000, 0.00000000, 0.00000000, 0.00000000, 0.00000000, -0.51150000, -0.42179999, 0.40070000, 0.63220000, 0.01600000, -0.29000002, -0.04100000, 0.00000000, 0.00000000, 0.00000000, 0.00000000
1, 4.0000, 400, 0.00000000, 0.00000000, 0.00000000, 0.00000000, 0.00000000, 0.00000000, 0.00000000, 0.00000000, 0.00000000, 0.00000000, 0.00000000, 0.00000000, -0.50839996, -0.42710000, 0.39659998, 0.63379997, -0.00800000, -0.22300000, 0.03200000, 0.00000000, 0.00000000, 0.00000000, 0.00000000
1, 4.0100, 401, 0.00000000, 0.00000000, 0.00000000, 0.00000000, 0.00000000, 0.00000000, 0.00000000, 0.00000000, 0.00000000, 0.00000000, 0.00000000, 0.00000000, -0.50529999, -0.43210000, 0.39249998, 0.63529998, -0.03200000, -0.18300001, 0.11400001, 0.00000000, 0.00000000, 0.00000000, 0.00000000
1, 4.0200, 402, 0.00000000, 0.00000000, 0.00000000, 0.00000000, 0.00000000, 0.00000000, 0.00000000, 0.00000000, 0.00000000, 0.00000000, 0.00000000, 0.00000000, -0.50239998, -0.43689999, 0.38869998, 0.63669997, -0.05900000, -0.13000001, 0.15300001, 0.00000000, 0.00000000, 0.00000000, 0.00000000
1, 4.0300, 403, 0.00000000, 0.00000000, 0.00000000, 0.00000000, 0.00000000, 0.00000000, 0.00000000, 0.00000000, 0.00000000, 0.00000000, 0.00000000, 0.00000000, -0.49969998, -0.44129997, 0.38569999, 0.63760000, -0.07700001, -0.04900000, 0.15400001, 0.00000000, 0.00000000, 0.00000000, 0.00000000
1, 4.0400, 404, 0.00000000, 0.00000000, 0.00000000, 0.00000000, 0.00000000, 0.00000000, 0.00000000, 0.00000000, 0.00000000, 0.00000000, 0.00000000, 0.00000000, -0.49739999, -0.44520000, 0.38310000, 0.63830000, -0.09700000, -0.00700000, 0.16700001, 0.00000000, 0.00000000, 0.00000000, 0.00000000
1, 4.0500, 405, 0.00000000, 0.00000000, 0.00000000, 0.00000000, 0.00000000, 0.00000000, 0.00000000, 0.00000000, 0.00000000, 0.00000000, 0.00000000, 0.00000000, -0.49519998, -0.44880000, 0.38069999, 0.63889998, -0.10500000, 0.01600000, 0.11500000, 0.00000000, 0.00000000, 0.00000000, 0.00000000
