SensorId, TimeStamp (s), FrameNumber, AccX (g), AccY (g), AccZ (g), GyroX (deg/s), GyroY (deg/s), GyroZ (deg/s), MagX (uT), MagY (uT), MagZ (uT), EulerX (deg), EulerY (deg), EulerZ (deg), QuatW, QuatX, QuatY, QuatZ, LinAccX (g), LinAccY (g), LinAccZ (g), Pressure (kPa), Altitude (m), Temperature (degC), HeaveMotion (m)
1, 0.0000, 0, 0.00000000, 0.00000000, 0.00000000, 0.00000000, 0.00000000, 0.00000000, 0.00000000, 0.00000000, 0.00000000, 0.00000000, 0.00000000, 0.00000000, 0.82749999, -0.51410002, -0.19080000, -0.11979999, 0.00000000, -0.00100000, 0.00100000, 0.00000000, 0.00000000, 0.00000000, 0.00000000
4, 0.0000, 0, 0.00000000, 0.00000000, 0.00000000, 0.00000000, 0.00000000, 0.00000000, 0.00000000, 0.00000000, 0.00000000, 0.00000000, 0.00000000, 0.00000000, 0.80979997, -0.57769996, 0.03630000, -0.09490000, 0.00500000, -0.00100000, -0.00300000, 0.00000000, 0.00000000, 0.00000000, 0.00000000
4, 0.0100, 1, 0.00000000, 0.00000000, 0.00000000, 0.00000000, 0.00000000, 0.00000000, 0.00000000, 0.00000000, 0.00000000, 0.00000000, 0.00000000, 0.00000000, 0.80979997, -0.57769996, 0.03630000, -0.09500000, 0.00400000, 0.00000000, 0.00100000, 0.00000000, 0.00000000, 0.00000000, 0.00000000
1, 0.0100, 1, 0.00000000, 0.00000000, 0.00000000, 0.00000000, 0.00000000, 0.00000000, 0.00000000, 0.00000000, 0.00000000, 0.00000000, 0.00000000, 0.00000000, 0.82749999, -0.51410002, -0.19080000, -0.11979999, 0.00200000, 0.00000000, 0.00000000, 0.00000000, 0.00000000, 0.00000000, 0.00000000
1, 0.0200, 2, 0.00000000, 0.00000000, 0.00000000, 0.00000000, 0.00000000, 0.00000000, 0.00000000, 0.00000000, 0.00000000, 0.00000000, 0.00000000, 0.00000000, 0.82749999, -0.51410002, -0.19080000, -0.11979999, 0.00100000, -0.00100000, 0.00100000, 0.00000000, 0.00000000, 0.00000000, 0.00000000
4, 0.0200, 2, 0.00000000, 0.00000000, 0.00000000, 0.00000000, 0.00000000, 0.00000000, 0.00000000, 0.00000000, 0.00000000, 0.00000000, 0.00000000, 0.00000000, 0.80979997, -0.57769996, 0.03630000, -0.09510000, 0.00000000, 0.00000000, 0.00100000, 0.00000000, 0.00000000, 0.00000000, 0.00000000
1, 0.0300, 3, 0.00000000, 0.00000000, 0.00000000, 0.00000000, 0.00000000, 0.00000000, 0.00000000, 0.00000000, 0.00000000, 0.00000000, 0.00000000, 0.00000000, 0.82749999, -0.51410002, -0.19080000, -0.11979999, 0.00000000, -0.00100000, 0.00100000, 0.00000000, 0.00000000, 0.00000000, 0.00000000
4, 0.0300, 3, 0.00000000, 0.00000000, 0.00000000, 0.00000000, 0.00000000, 0.00000000, 0.00000000, 0.00000000, 0.00000000, 0.00000000, 0.00000000, 0.00000000, 0.80979997, -0.57769996, 0.03620000, -0.09510000, -0.00200000, 0.00100000, 0.00100000, 0.00000000, 0.00000000, 0.00000000, 0.00000000
1, 0.0400, 4, 0.00000000, 0.00000000, 0.00000000, 0.00000000, 0.00000000, 0.00000000, 0.00000000, 0.00000000, 0.00000000, 0.00000000, 0.00000000, 0.00000000, 0.82749999, -0.51400000, -0.19080000, -0.11979999, 0.00000000, -0.00100000, 0.00000000, 0.00000000, 0.00000000, 0.00000000, 0.00000000
4, 0.0400, 4, 0.00000000, 0.00000000, 0.00000000, 0.00000000, 0.00000000, 0.00000000, 0.00000000, 0.00000000, 0.00000000, 0.00000000, 0.00000000, 0.00000000, 0.80979997, -0.57769996, 0.03620000, -0.09500000, -0.00200000, 0.00100000, -0.00400000, 0.00000000, 0.00000000, 0.00000000, 0.00000000
4, 0.0500, 5, 0.00000000, 0.00000000, 0.00000000, 0.00000000, 0.00000000, 0.00000000, 0.00000000, 0.00000000, 0.00000000, 0.00000000, 0.00000000, 0.00000000, 0.80979997, -0.57769996, 0.03620000, -0.09500000, 0.00300000, -0.00100000, -0.00400000, 0.00000000, 0.00000000, 0.00000000, 0.00000000
1, 0.0500, 5, 0.00000000, 0.00000000, 0.00000000, 0.00000000, 0.00000000, 0.00000000, 0.00000000, 0.00000000, 0.00000000, 0.00000000, 0.00000000, 0.00000000, 0.82760000, -0.51400000, -0.19080000, -0.11979999, -0.00100000, -0.00200000, 0.00100000, 0.00000000, 0.00000000, 0.00000000, 0.00000000
4, 0.0600, 6, 0.00000000, 0.00000000, 0.00000000, 0.00000000, 0.00000000, 0.00000000, 0.00000000, 0.00000000, 0.00000000, 0.00000000, 0.00000000, 0.00000000, 0.80979997, -0.57769996, 0.03620000, -0.09500000, 0.00600000, -0.00200000, 0.00000000, 0.00000000, 0.00000000, 0.00000000, 0.00000000
1, 0.0600, 6, 0.00000000, 0.00000000, 0.00000000, 0.00000000, 0.00000000, 0.00000000, 0.00000000, 0.00000000, 0.00000000, 0.00000000, 0.00000000, 0.00000000, 0.82760000, -0.51400000, -0.19090000, -0.11979999, -0.00100000, -0.00200000, 0.00100000, 0.00000000, 0.00000000, 0.00000000, 0.00000000
4, 0.0700, 7, 0.00000000, 0.00000000, 0.00000000, 0.00000000, 0.00000000, 0.00000000, 0.00000000, 0.00000000, 0.00000000, 0.00000000, 0.00000000, 0.00000000, 0.80979997, -0.57769996, 0.03610000, -0.09510000, 0.00500000, -0.00200000, -0.00100000, 0.00000000, 0.00000000, 0.00000000, 0.00000000
4, 0.0800, 8, 0.00000000, 0.00000000, 0.00000000, 0.00000000, 0.00000000, 0.00000000, 0.00000000, 0.00000000, 0.00000000, 0.00000000, 0.00000000, 0.00000000, 0.80979997, -0.57769996, 0.03610000, -0.09519999, 0.00500000, -0.00100000, 0.00000000, 0.00000000, 0.00000000, 0.00000000, 0.00000000
4, 0.0900, 9, 0.00000000, 0.00000000, 0.00000000, 0.00000000, 0.00000000, 0.00000000, 0.00000000, 0.00000000, 0.00000000, 0.00000000, 0.00000000, 0.00000000, 0.80969995, -0.57769996, 0.03600000, -0.09530000, 0.00200000, 0.00000000, -0.00100000, 0.00000000, 0.00000000, 0.00000000, 0.00000000
4, 0.1000, 10, 0.00000000, 0.00000000, 0.00000000, 0.00000000, 0.00000000, 0.00000000, 0.00000000, 0.00000000, 0.00000000, 0.00000000, 0.00000000, 0.00000000, 0.80969995, -0.57769996, 0.03600000, -0.09530000, 0.00000000, 0.00000000, 0.00000000, 0.00000000, 0.00000000, 0.00000000, 0.00000000
4, 0.1100, 11, 0.00000000, 0.00000000, 0.00000000, 0.00000000, 0.00000000, 0.00000000, 0.00000000, 0.00000000, 0.00000000, 0.00000000, 0.00000000, 0.00000000, 0.80979997, -0.57769996, 0.03600000, -0.09530000, -0.00200000, 0.00000000, 0.00400000, 0.00000000, 0.00000000, 0.00000000, 0.00000000
1, 0.0700, 7, 0.00000000, 0.00000000, 0.00000000, 0.00000000, 0.00000000, 0.00000000, 0.00000000, 0.00000000, 0.00000000, 0.00000000, 0.00000000, 0.00000000, 0.82760000, -0.51400000, -0.19090000, -0.11979999, -0.00100000, 0.00000000, 0.00000000, 0.00000000, 0.00000000, 0.00000000, 0.00000000
1, 0.0800, 8, 0.00000000, 0.00000000, 0.00000000, 0.00000000, 0.00000000, 0.00000000, 0.00000000, 0.00000000, 0.00000000, 0.00000000, 0.00000000, 0.00000000, 0.82760000, -0.51400000, -0.19090000, -0.11970000, 0.00000000, -0.00100000, 0.00000000, 0.00000000, 0.00000000, 0.00000000, 0.00000000
4, 0.1200, 12, 0.00000000, 0.00000000, 0.00000000, 0.00000000, 0.00000000, 0.00000000, 0.00000000, 0.00000000, 0.00000000, 0.00000000, 0.00000000, 0.00000000, 0.80979997, -0.57769996, 0.03610000, -0.09519999, -0.00400000, 0.00000000, -0.00200000, 0.00000000, 0.00000000, 0.00000000, 0.00000000
1, 0.0900, 9, 0.00000000, 0.00000000, 0.00000000, 0.00000000, 0.00000000, 0.00000000, 0.00000000, 0.00000000, 0.00000000, 0.00000000, 0.00000000, 0.00000000, 0.82760000, -0.51400000, -0.19090000, -0.11970000, 0.00000000, -0.00100000, 0.00000000, 0.00000000, 0.00000000, 0.00000000, 0.00000000
4, 0.1300, 13, 0.00000000, 0.00000000, 0.00000000, 0.00000000, 0.00000000, 0.00000000, 0.00000000, 0.00000000, 0.00000000, 0.00000000, 0.00000000, 0.00000000, 0.80979997, -0.57769996, 0.03610000, -0.09519999, 0.00000000, 0.00000000, -0.00800000, 0.00000000, 0.00000000, 0.00000000, 0.00000000
1, 0.1000, 10, 0.00000000, 0.00000000, 0.00000000, 0.00000000, 0.00000000, 0.00000000, 0.00000000, 0.00000000, 0.00000000, 0.00000000, 0.00000000, 0.00000000, 0.82760000, -0.51400000, -0.19080000, -0.11970000, 0.00300000, 0.00000000, 0.00000000, 0.00000000, 0.00000000, 0.00000000, 0.00000000
1, 0.1100, 11, 0.00000000, 0.00000000, 0.00000000, 0.00000000, 0.00000000, 0.00000000, 0.00000000, 0.00000000, 0.00000000, 0.00000000, 0.00000000, 0.00000000, 0.82760000, -0.51400000, -0.19080000, -0.11970000, 0.00100000, -0.00200000, 0.00000000, 0.00000000, 0.00000000, 0.00000000, 0.00000000
4, 0.1400, 14, 0.00000000, 0.00000000, 0.00000000, 0.00000000, 0.00000000, 0.00000000, 0.00000000, 0.00000000, 0.00000000, 0.00000000, 0.00000000, 0.00000000, 0.80969995, -0.57779998, 0.03620000, -0.09510000, 0.00500000, 0.00000000, -0.00800000, 0.00000000, 0.00000000, 0.00000000, 0.00000000
1, 0.1200, 12, 0.00000000, 0.00000000, 0.00000000, 0.00000000, 0.00000000, 0.00000000, 0.00000000, 0.00000000, 0.00000000, 0.00000000, 0.00000000, 0.00000000, 0.82760000, -0.51400000, -0.19090000, -0.11960000, -0.00200000, -0.00200000, 0.00000000, 0.00000000, 0.00000000, 0.00000000, 0.00000000
4, 0.1500, 15, 0.00000000, 0.00000000, 0.00000000, 0.00000000, 0.00000000, 0.00000000, 0.00000000, 0.00000000, 0.00000000, 0.00000000, 0.00000000, 0.00000000, 0.80969995, -0.57779998, 0.03610000, -0.09510000, 0.00900000, -0.00200000, -0.00700000, 0.00000000, 0.00000000, 0.00000000, 0.00000000
4, 0.1600, 16, 0.00000000, 0.00000000, 0.00000000, 0.00000000, 0.00000000, 0.00000000, 0.00000000, 0.00000000, 0.00000000, 0.00000000, 0.00000000, 0.00000000, 0.80969995, -0.57779998, 0.03600000, -0.09510000, 0.01300000, -0.00200000, -0.00700000, 0.00000000, 0.00000000, 0.00000000, 0.00000000
4, 0.1700, 17, 0.00000000, 0.00000000, 0.00000000, 0.00000000, 0.00000000, 0.00000000, 0.00000000, 0.00000000, 0.00000000, 0.00000000, 0.00000000, 0.00000000, 0.80969995, -0.57779998, 0.03590000, -0.09530000, 0.01300000, -0.00100000, -0.00400000, 0.00000000, 0.00000000, 0.00000000, 0.00000000
1, 0.1300, 13, 0.00000000, 0.00000000, 0.00000000, 0.00000000, 0.00000000, 0.00000000, 0.00000000, 0.00000000, 0.00000000, 0.00000000, 0.00000000, 0.00000000, 0.82760000, -0.51400000, -0.19090000, -0.11960000, 0.00000000, -0.00100000, 0.00000000, 0.00000000, 0.00000000, 0.00000000, 0.00000000
1, 0.1400, 14, 0.00000000, 0.00000000, 0.00000000, 0.00000000, 0.00000000, 0.00000000, 0.00000000, 0.00000000, 0.00000000, 0.00000000, 0.00000000, 0.00000000, 0.82760000, -0.51400000, -0.19090000, -0.11960000, -0.00100000, -0.00200000, 0.00000000, 0.00000000, 0.00000000, 0.00000000, 0.00000000
4, 0.1800, 18, 0.00000000, 0.00000000, 0.00000000, 0.00000000, 0.00000000, 0.00000000, 0.00000000, 0.00000000, 0.00000000, 0.00000000, 0.00000000, 0.00000000, 0.80969995, -0.57779998, 0.03570000, -0.09530000, 0.00500000, 0.00000000, 0.00100000, 0.00000000, 0.00000000, 0.00000000, 0.00000000
4, 0.1900, 19, 0.00000000, 0.00000000, 0.00000000, 0.00000000, 0.00000000, 0.00000000, 0.00000000, 0.00000000, 0.00000000, 0.00000000, 0.00000000, 0.00000000, 0.80979997, -0.57769996, 0.03560000, -0.09540000, -0.00400000, 0.00200000, 0.00200000, 0.00000000, 0.00000000, 0.00000000, 0.00000000
4, 0.2000, 20, 0.00000000, 0.00000000, 0.00000000, 0.00000000, 0.00000000, 0.00000000, 0.00000000, 0.00000000, 0.00000000, 0.00000000, 0.00000000, 0.00000000, 0.80979997, -0.57769996, 0.03540000, -0.09540000, -0.00700000, 0.00000000, 0.00000000, 0.00000000, 0.00000000, 0.00000000, 0.00000000
1, 0.1500, 15, 0.00000000, 0.00000000, 0.00000000, 0.00000000, 0.00000000, 0.00000000, 0.00000000, 0.00000000, 0.00000000, 0.00000000, 0.00000000, 0.00000000, 0.82749999, -0.51410002, -0.19090000, -0.11960000, -0.00100000, -0.00100000, 0.00000000, 0.00000000, 0.00000000, 0.00000000, 0.00000000
1, 0.1600, 16, 0.00000000, 0.00000000, 0.00000000, 0.00000000, 0.00000000, 0.00000000, 0.00000000, 0.00000000, 0.00000000, 0.00000000, 0.00000000, 0.00000000, 0.82749999, -0.51410002, -0.19090000, -0.11960000, 0.00100000, 0.00000000, 0.00000000, 0.00000000, 0.00000000, 0.00000000, 0.00000000
4, 0.2100, 21, 0.00000000, 0.00000000, 0.00000000, 0.00000000, 0.00000000, 0.00000000, 0.00000000, 0.00000000, 0.00000000, 0.00000000, 0.00000000, 0.00000000, 0.80979997, -0.57769996, 0.03530000, -0.09550000, -0.00200000, -0.00100000, -0.00100000, 0.00000000, 0.00000000, 0.00000000, 0.00000000
1, 0.1700, 17, 0.00000000, 0.00000000, 0.00000000, 0.00000000, 0.00000000, 0.00000000, 0.00000000, 0.00000000, 0.00000000, 0.00000000, 0.00000000, 0.00000000, 0.82749999, -0.51410002, -0.19090000, -0.11960000, 0.00200000, 0.00000000, 0.00000000, 0.00000000, 0.00000000, 0.00000000, 0.00000000
1, 0.1800, 18, 0.00000000, 0.00000000, 0.00000000, 0.00000000, 0.00000000, 0.00000000, 0.00000000, 0.00000000, 0.00000000, 0.00000000, 0.00000000, 0.00000000, 0.82749999, -0.51410002, -0.19090000, -0.11950000, 0.00300000, -0.00100000, 0.00000000, 0.00000000, 0.00000000, 0.00000000, 0.00000000
1, 0.1900, 19, 0.00000000, 0.00000000, 0.00000000, 0.00000000, 0.00000000, 0.00000000, 0.00000000, 0.00000000, 0.00000000, 0.00000000, 0.00000000, 0.00000000, 0.82749999, -0.51410002, -0.19090000, -0.11950000, 0.00000000, 0.00000000, 0.00000000, 0.00000000, 0.00000000, 0.00000000, 0.00000000
4, 0.2200, 22, 0.00000000, 0.00000000, 0.00000000, 0.00000000, 0.00000000, 0.00000000, 0.00000000, 0.00000000, 0.00000000, 0.00000000, 0.00000000, 0.00000000, 0.80979997, -0.57760000, 0.03510000, -0.09550000, 0.00000000, 0.00000000, 0.00100000, 0.00000000, 0.00000000, 0.00000000, 0.00000000
1, 0.2000, 20, 0.00000000, 0.00000000, 0.00000000, 0.00000000, 0.00000000, 0.00000000, 0.00000000, 0.00000000, 0.00000000, 0.00000000, 0.00000000, 0.00000000, 0.82749999, -0.51410002, -0.19100000, -0.11950000, 0.00000000, -0.00100000, 0.00100000, 0.00000000, 0.00000000, 0.00000000, 0.00000000
1, 0.2100, 21, 0.00000000, 0.00000000, 0.00000000, 0.00000000, 0.00000000, 0.00000000, 0.00000000, 0.00000000, 0.00000000, 0.00000000, 0.00000000, 0.00000000, 0.82749999, -0.51410002, -0.19100000, -0.11950000, -0.00200000, -0.00200000, 0.00100000, 0.00000000, 0.00000000, 0.00000000, 0.00000000
4, 0.2300, 23, 0.00000000, 0.00000000, 0.00000000, 0.00000000, 0.00000000, 0.00000000, 0.00000000, 0.00000000, 0.00000000, 0.00000000, 0.00000000, 0.00000000, 0.80989999, -0.57760000, 0.03500000, -0.09550000, -0.00200000, -0.00100000, 0.00000000, 0.00000000, 0.00000000, 0.00000000, 0.00000000
1, 0.2200, 22, 0.00000000, 0.00000000, 0.00000000, 0.00000000, 0.00000000, 0.00000000, 0.00000000, 0.00000000, 0.00000000, 0.00000000, 0.00000000, 0.00000000, 0.82749999, -0.51410002, -0.19100000, -0.11950000, -0.00200000, -0.00100000, 0.00000000, 0.00000000, 0.00000000, 0.00000000, 0.00000000
1, 0.2300, 23, 0.00000000, 0.00000000, 0.00000000, 0.00000000, 0.00000000, 0.00000000, 0.00000000, 0.00000000, 0.00000000, 0.00000000, 0.00000000, 0.00000000, 0.82749999, -0.51410002, -0.19100000, -0.11939999, -0.00100000, -0.00200000, 0.00000000, 0.00000000, 0.00000000, 0.00000000, 0.00000000
4, 0.2400, 24, 0.00000000, 0.00000000, 0.00000000, 0.00000000, 0.00000000, 0.00000000, 0.00000000, 0.00000000, 0.00000000, 0.00000000, 0.00000000, 0.00000000, 0.80989999, -0.57760000, 0.03490000, -0.09559999, 0.00000000, -0.00100000, -0.00300000, 0.00000000, 0.00000000, 0.00000000, 0.00000000
1, 0.2400, 24, 0.00000000, 0.00000000, 0.00000000, 0.00000000, 0.00000000, 0.00000000, 0.00000000, 0.00000000, 0.00000000, 0.00000000, 0.00000000, 0.00000000, 0.82749999, -0.51410002, -0.19110000, -0.11939999, -0.00100000, -0.00200000, 0.00100000, 0.00000000, 0.00000000, 0.00000000, 0.00000000
1, 0.2500, 25, 0.00000000, 0.00000000, 0.00000000, 0.00000000, 0.00000000, 0.00000000, 0.00000000, 0.00000000, 0.00000000, 0.00000000, 0.00000000, 0.00000000, 0.82749999, -0.51400000, -0.19110000, -0.11939999, 0.00000000, -0.00100000, 0.00000000, 0.00000000, 0.00000000, 0.00000000, 0.00000000
4, 0.2500, 25, 0.00000000, 0.00000000, 0.00000000, 0.00000000, 0.00000000, 0.00000000, 0.00000000, 0.00000000, 0.00000000, 0.00000000, 0.00000000, 0.00000000, 0.80979997, -0.57760000, 0.03470000, -0.09559999, 0.00200000, 0.00000000, -0.00200000, 0.00000000, 0.00000000, 0.00000000, 0.00000000
1, 0.2600, 26, 0.00000000, 0.00000000, 0.00000000, 0.00000000, 0.00000000, 0.00000000, 0.00000000, 0.00000000, 0.00000000, 0.00000000, 0.00000000, 0.00000000, 0.82749999, -0.51410002, -0.19100000, -0.11939999, 0.00400000, -0.00100000, 0.00000000, 0.00000000, 0.00000000, 0.00000000, 0.00000000
1, 0.2700, 27, 0.00000000, 0.00000000, 0.00000000, 0.00000000, 0.00000000, 0.00000000, 0.00000000, 0.00000000, 0.00000000, 0.00000000, 0.00000000, 0.00000000, 0.82749999, -0.51410002, -0.19110000, -0.11930000, 0.00100000, -0.00100000, 0.00100000, 0.00000000, 0.00000000, 0.00000000, 0.00000000
4, 0.2600, 26, 0.00000000, 0.00000000, 0.00000000, 0.00000000, 0.00000000, 0.00000000, 0.00000000, 0.00000000, 0.00000000, 0.00000000, 0.00000000, 0.00000000, 0.80979997, -0.57760000, 0.03470000, -0.09570000, 0.00300000, 0.00000000, 0.00000000, 0.00000000, 0.00000000, 0.00000000, 0.00000000
4, 0.2700, 27, 0.00000000, 0.00000000, 0.00000000, 0.00000000, 0.00000000, 0.00000000, 0.00000000, 0.00000000, 0.00000000, 0.00000000, 0.00000000, 0.00000000, 0.80989999, -0.57760000, 0.03470000, -0.09570000, 0.00100000, 0.00100000, 0.00000000, 0.00000000, 0.00000000, 0.00000000, 0.00000000
1, 0.2800, 28, 0.00000000, 0.00000000, 0.00000000, 0.00000000, 0.00000000, 0.00000000, 0.00000000, 0.00000000, 0.00000000, 0.00000000, 0.00000000, 0.00000000, 0.82749999, -0.51410002, -0.19110000, -0.11930000, 0.00100000, -0.00100000, 0.00000000, 0.00000000, 0.00000000, 0.00000000, 0.00000000
1, 0.2900, 29, 0.00000000, 0.00000000, 0.00000000, 0.00000000, 0.00000000, 0.00000000, 0.00000000, 0.00000000, 0.00000000, 0.00000000, 0.00000000, 0.00000000, 0.82749999, -0.51410002, -0.19110000, -0.11930000, -0.00100000, -0.00200000, 0.00000000, 0.00000000, 0.00000000, 0.00000000, 0.00000000
4, 0.2800, 28, 0.00000000, 0.00000000, 0.00000000, 0.00000000, 0.00000000, 0.00000000, 0.00000000, 0.00000000, 0.00000000, 0.00000000, 0.00000000, 0.00000000, 0.80989999, -0.57760000, 0.03470000, -0.09559999, -0.00100000, 0.00000000, -0.00400000, 0.00000000, 0.00000000, 0.00000000, 0.00000000
1, 0.3000, 30, 0.00000000, 0.00000000, 0.00000000, 0.00000000, 0.00000000, 0.00000000, 0.00000000, 0.00000000, 0.00000000, 0.00000000, 0.00000000, 0.00000000, 0.82749999, -0.51410002, -0.19110000, -0.11920000, 0.00000000, -0.00100000, 0.00000000, 0.00000000, 0.00000000, 0.00000000, 0.00000000
4, 0.2900, 29, 0.00000000, 0.00000000, 0.00000000, 0.00000000, 0.00000000, 0.00000000, 0.00000000, 0.00000000, 0.00000000, 0.00000000, 0.00000000, 0.00000000, 0.80989999, -0.57760000, 0.03470000, -0.09559999, 0.00100000, 0.00000000, -0.00500000, 0.00000000, 0.00000000, 0.00000000, 0.00000000
1, 0.3100, 31, 0.00000000, 0.00000000, 0.00000000, 0.00000000, 0.00000000, 0.00000000, 0.00000000, 0.00000000, 0.00000000, 0.00000000, 0.00000000, 0.00000000, 0.82749999, -0.51410002, -0.19110000, -0.11920000, -0.00100000, -0.00200000, 0.00000000, 0.00000000, 0.00000000, 0.00000000, 0.00000000
4, 0.3000, 30, 0.00000000, 0.00000000, 0.00000000, 0.00000000, 0.00000000, 0.00000000, 0.00000000, 0.00000000, 0.00000000, 0.00000000, 0.00000000, 0.00000000, 0.80989999, -0.57760000, 0.03470000, -0.09550000, -0.00200000, 0.00100000, -0.00300000, 0.00000000, 0.00000000, 0.00000000, 0.00000000
4, 0.3100, 31, 0.00000000, 0.00000000, 0.00000000, 0.00000000, 0.00000000, 0.00000000, 0.00000000, 0.00000000, 0.00000000, 0.00000000, 0.00000000, 0.00000000, 0.80989999, -0.57760000, 0.03460000, -0.09550000, 0.00000000, 0.00000000, -0.00400000, 0.00000000, 0.00000000, 0.00000000, 0.00000000
1, 0.3200, 32, 0.00000000, 0.00000000, 0.00000000, 0.00000000, 0.00000000, 0.00000000, 0.00000000, 0.00000000, 0.00000000, 0.00000000, 0.00000000, 0.00000000, 0.82749999, -0.51400000, -0.19119999, -0.11920000, -0.00400000, -0.00100000, 0.00100000, 0.00000000, 0.00000000, 0.00000000, 0.00000000
4, 0.3200, 32, 0.00000000, 0.00000000, 0.00000000, 0.00000000, 0.00000000, 0.00000000, 0.00000000, 0.00000000, 0.00000000, 0.00000000, 0.00000000, 0.00000000, 0.80989999, -0.57760000, 0.03440000, -0.09550000, 0.00300000, -0.00200000, -0.00200000, 0.00000000, 0.00000000, 0.00000000, 0.00000000
1, 0.3300, 33, 0.00000000, 0.00000000, 0.00000000, 0.00000000, 0.00000000, 0.00000000, 0.00000000, 0.00000000, 0.00000000, 0.00000000, 0.00000000, 0.00000000, 0.82749999, -0.51400000, -0.19119999, -0.11920000, -0.00100000, -0.00100000, 0.00000000, 0.00000000, 0.00000000, 0.00000000, 0.00000000
4, 0.3300, 33, 0.00000000, 0.00000000, 0.00000000, 0.00000000, 0.00000000, 0.00000000, 0.00000000, 0.00000000, 0.00000000, 0.00000000, 0.00000000, 0.00000000, 0.80989999, -0.57760000, 0.03420000, -0.09559999, 0.00400000, -0.00100000, -0.00200000, 0.00000000, 0.00000000, 0.00000000, 0.00000000
1, 0.3400, 34, 0.00000000, 0.00000000, 0.00000000, 0.00000000, 0.00000000, 0.00000000, 0.00000000, 0.00000000, 0.00000000, 0.00000000, 0.00000000, 0.00000000, 0.82760000, -0.51400000, -0.19119999, -0.11920000, 0.00000000, -0.00100000, 0.00100000, 0.00000000, 0.00000000, 0.00000000, 0.00000000
4, 0.3400, 34, 0.00000000, 0.00000000, 0.00000000, 0.00000000, 0.00000000, 0.00000000, 0.00000000, 0.00000000, 0.00000000, 0.00000000, 0.00000000, 0.00000000, 0.80989999, -0.57760000, 0.03400000, -0.09570000, 0.00600000, 0.00000000, 0.00000000, 0.00000000, 0.00000000, 0.00000000, 0.00000000
1, 0.3500, 35, 0.00000000, 0.00000000, 0.00000000, 0.00000000, 0.00000000, 0.00000000, 0.00000000, 0.00000000, 0.00000000, 0.00000000, 0.00000000, 0.00000000, 0.82760000, -0.51400000, -0.19119999, -0.11920000, 0.00300000, -0.00100000, 0.00000000, 0.00000000, 0.00000000, 0.00000000, 0.00000000
1, 0.3600, 36, 0.00000000, 0.00000000, 0.00000000, 0.00000000, 0.00000000, 0.00000000, 0.00000000, 0.00000000, 0.00000000, 0.00000000, 0.00000000, 0.00000000, 0.82760000, -0.51400000, -0.19119999, -0.11920000, 0.00500000, -0.00200000, 0.00000000, 0.00000000, 0.00000000, 0.00000000, 0.00000000
4, 0.3500, 35, 0.00000000, 0.00000000, 0.00000000, 0.00000000, 0.00000000, 0.00000000, 0.00000000, 0.00000000, 0.00000000, 0.00000000, 0.00000000, 0.00000000, 0.80989999, -0.57760000, 0.03400000, -0.09570000, 0.00000000, -0.00100000, 0.00000000, 0.00000000, 0.00000000, 0.00000000, 0.00000000
4, 0.3600, 36, 0.00000000, 0.00000000, 0.00000000, 0.00000000, 0.00000000, 0.00000000, 0.00000000, 0.00000000, 0.00000000, 0.00000000, 0.00000000, 0.00000000, 0.80989999, -0.57760000, 0.03400000, -0.09570000, 0.00000000, -0.00100000, -0.00500000, 0.00000000, 0.00000000, 0.00000000, 0.00000000
1, 0.3700, 37, 0.00000000, 0.00000000, 0.00000000, 0.00000000, 0.00000000, 0.00000000, 0.00000000, 0.00000000, 0.00000000, 0.00000000, 0.00000000, 0.00000000, 0.82760000, -0.51400000, -0.19119999, -0.11920000, 0.00100000, -0.00200000, 0.00000000, 0.00000000, 0.00000000, 0.00000000, 0.00000000
4, 0.3700, 37, 0.00000000, 0.00000000, 0.00000000, 0.00000000, 0.00000000, 0.00000000, 0.00000000, 0.00000000, 0.00000000, 0.00000000, 0.00000000, 0.00000000, 0.80989999, -0.57760000, 0.03400000, -0.09580000, 0.00500000, -0.00100000, -0.00100000, 0.00000000, 0.00000000, 0.00000000, 0.00000000
4, 0.3800, 38, 0.00000000, 0.00000000, 0.00000000, 0.00000000, 0.00000000, 0.00000000, 0.00000000, 0.00000000, 0.00000000, 0.00000000, 0.00000000, 0.00000000, 0.80989999, -0.57760000, 0.03410000, -0.09580000, 0.00100000, 0.00000000, 0.00000000, 0.00000000, 0.00000000, 0.00000000, 0.00000000
1, 0.3800, 38, 0.00000000, 0.00000000, 0.00000000, 0.00000000, 0.00000000, 0.00000000, 0.00000000, 0.00000000, 0.00000000, 0.00000000, 0.00000000, 0.00000000, 0.82760000, -0.51400000, -0.19119999, -0.11910000, 0.00300000, 0.00000000, 0.00000000, 0.00000000, 0.00000000, 0.00000000, 0.00000000
1, 0.3900, 39, 0.00000000, 0.00000000, 0.00000000, 0.00000000, 0.00000000, 0.00000000, 0.00000000, 0.00000000, 0.00000000, 0.00000000, 0.00000000, 0.00000000, 0.82760000, -0.51400000, -0.19119999, -0.11910000, 0.00100000, -0.00200000, 0.00000000, 0.00000000, 0.00000000, 0.00000000, 0.00000000
4, 0.3900, 39, 0.00000000, 0.00000000, 0.00000000, 0.00000000, 0.00000000, 0.00000000, 0.00000000, 0.00000000, 0.00000000, 0.00000000, 0.00000000, 0.00000000, 0.80989999, -0.57749999, 0.03420000, -0.09570000, -0.00200000, 0.00100000, 0.00300000, 0.00000000, 0.00000000, 0.00000000, 0.00000000
4, 0.4000, 40, 0.00000000, 0.00000000, 0.00000000, 0.00000000, 0.00000000, 0.00000000, 0.00000000, 0.00000000, 0.00000000, 0.00000000, 0.00000000, 0.00000000, 0.80989999, -0.57749999, 0.03420000, -0.09570000, -0.00400000, 0.00300000, 0.00200000, 0.00000000, 0.00000000, 0.00000000, 0.00000000
4, 0.4100, 41, 0.00000000, 0.00000000, 0.00000000, 0.00000000, 0.00000000, 0.00000000, 0.00000000, 0.00000000, 0.00000000, 0.00000000, 0.00000000, 0.00000000, 0.81000000, -0.57749999, 0.03420000, -0.09559999, -0.00400000, 0.00300000, 0.00100000, 0.00000000, 0.00000000, 0.00000000, 0.00000000
4, 0.4200, 42, 0.00000000, 0.00000000, 0.00000000, 0.00000000, 0.00000000, 0.00000000, 0.00000000, 0.00000000, 0.00000000, 0.00000000, 0.00000000, 0.00000000, 0.81000000, -0.57749999, 0.03410000, -0.09550000, -0.00400000, 0.00000000, -0.00100000, 0.00000000, 0.00000000, 0.00000000, 0.00000000
4, 0.4300, 43, 0.00000000, 0.00000000, 0.00000000, 0.00000000, 0.00000000, 0.00000000, 0.00000000, 0.00000000, 0.00000000, 0.00000000, 0.00000000, 0.00000000, 0.81000000, -0.57749999, 0.03410000, -0.09550000, 0.00000000, -0.00100000, -0.00700000, 0.00000000, 0.00000000, 0.00000000, 0.00000000
1, 0.4000, 40, 0.00000000, 0.00000000, 0.00000000, 0.00000000, 0.00000000, 0.00000000, 0.00000000, 0.00000000, 0.00000000, 0.00000000, 0.00000000, 0.00000000, 0.82760000, -0.51400000, -0.19129999, -0.11910000, -0.00300000, -0.00100000, 0.00100000, 0.00000000, 0.00000000, 0.00000000, 0.00000000
4, 0.4400, 44, 0.00000000, 0.00000000, 0.00000000, 0.00000000, 0.00000000, 0.00000000, 0.00000000, 0.00000000, 0.00000000, 0.00000000, 0.00000000, 0.00000000, 0.81000000, -0.57749999, 0.03400000, -0.09559999, 0.00200000, -0.00200000, -0.00800000, 0.00000000, 0.00000000, 0.00000000, 0.00000000
4, 0.4500, 45, 0.00000000, 0.00000000, 0.00000000, 0.00000000, 0.00000000, 0.00000000, 0.00000000, 0.00000000, 0.00000000, 0.00000000, 0.00000000, 0.00000000, 0.81000000, -0.57749999, 0.03380000, -0.09559999, 0.00400000, -0.00100000, -0.00600000, 0.00000000, 0.00000000, 0.00000000, 0.00000000
1, 0.4100, 41, 0.00000000, 0.00000000, 0.00000000, 0.00000000, 0.00000000, 0.00000000, 0.00000000, 0.00000000, 0.00000000, 0.00000000, 0.00000000, 0.00000000, 0.82760000, -0.51389998, -0.19129999, -0.11900000, -0.00300000, -0.00400000, 0.00200000, 0.00000000, 0.00000000, 0.00000000, 0.00000000
4, 0.4600, 46, 0.00000000, 0.00000000, 0.00000000, 0.00000000, 0.00000000, 0.00000000, 0.00000000, 0.00000000, 0.00000000, 0.00000000, 0.00000000, 0.00000000, 0.81000000, -0.57749999, 0.03380000, -0.09570000, 0.00300000, 0.00000000, -0.00100000, 0.00000000, 0.00000000, 0.00000000, 0.00000000
4, 0.4700, 47, 0.00000000, 0.00000000, 0.00000000, 0.00000000, 0.00000000, 0.00000000, 0.00000000, 0.00000000, 0.00000000, 0.00000000, 0.00000000, 0.00000000, 0.81000000, -0.57739997, 0.03370000, -0.09570000, 0.00000000, 0.00000000, 0.00000000, 0.00000000, 0.00000000, 0.00000000, 0.00000000
4, 0.4800, 48, 0.00000000, 0.00000000, 0.00000000, 0.00000000, 0.00000000, 0.00000000, 0.00000000, 0.00000000, 0.00000000, 0.00000000, 0.00000000, 0.00000000, 0.81000000, -0.57739997, 0.03380000, -0.09559999, -0.00100000, 0.00100000, -0.00100000, 0.00000000, 0.00000000, 0.00000000, 0.00000000
4, 0.4900, 49, 0.00000000, 0.00000000, 0.00000000, 0.00000000, 0.00000000, 0.00000000, 0.00000000, 0.00000000, 0.00000000, 0.00000000, 0.00000000, 0.00000000, 0.81000000, -0.57739997, 0.03380000, -0.09559999, 0.00000000, 0.00000000, -0.00200000, 0.00000000, 0.00000000, 0.00000000, 0.00000000
1, 0.4200, 42, 0.00000000, 0.00000000, 0.00000000, 0.00000000, 0.00000000, 0.00000000, 0.00000000, 0.00000000, 0.00000000, 0.00000000, 0.00000000, 0.00000000, 0.82760000, -0.51389998, -0.19129999, -0.11900000, -0.00200000, -0.00100000, 0.00100000, 0.00000000, 0.00000000, 0.00000000, 0.00000000
1, 0.4300, 43, 0.00000000, 0.00000000, 0.00000000, 0.00000000, 0.00000000, 0.00000000, 0.00000000, 0.00000000, 0.00000000, 0.00000000, 0.00000000, 0.00000000, 0.82760000, -0.51389998, -0.19139999, -0.11900000, -0.00300000, -0.00200000, 0.00000000, 0.00000000, 0.00000000, 0.00000000, 0.00000000
1, 0.4400, 44, 0.00000000, 0.00000000, 0.00000000, 0.00000000, 0.00000000, 0.00000000, 0.00000000, 0.00000000, 0.00000000, 0.00000000, 0.00000000, 0.00000000, 0.82760000, -0.51389998, -0.19139999, -0.11900000, -0.00200000, -0.00200000, 0.00000000, 0.00000000, 0.00000000, 0.00000000, 0.00000000
1, 0.4500, 45, 0.00000000, 0.00000000, 0.00000000, 0.00000000, 0.00000000, 0.00000000, 0.00000000, 0.00000000, 0.00000000, 0.00000000, 0.00000000, 0.00000000, 0.82760000, -0.51389998, -0.19139999, -0.11900000, -0.00100000, 0.00000000, 0.00000000, 0.00000000, 0.00000000, 0.00000000, 0.00000000
1, 0.4600, 46, 0.00000000, 0.00000000, 0.00000000, 0.00000000, 0.00000000, 0.00000000, 0.00000000, 0.00000000, 0.00000000, 0.00000000, 0.00000000, 0.00000000, 0.82760000, -0.51400000, -0.19139999, -0.11900000, 0.00300000, 0.00000000, -0.00100000, 0.00000000, 0.00000000, 0.00000000, 0.00000000
1, 0.4700, 47, 0.00000000, 0.00000000, 0.00000000, 0.00000000, 0.00000000, 0.00000000, 0.00000000, 0.00000000, 0.00000000, 0.00000000, 0.00000000, 0.00000000, 0.82760000, -0.51389998, -0.19129999, -0.11900000, 0.00100000, -0.00200000, 0.00000000, 0.00000000, 0.00000000, 0.00000000, 0.00000000
1, 0.4800, 48, 0.00000000, 0.00000000, 0.00000000, 0.00000000, 0.00000000, 0.00000000, 0.00000000, 0.00000000, 0.00000000, 0.00000000, 0.00000000, 0.00000000, 0.82760000, -0.51389998, -0.19139999, -0.11900000, 0.00000000, -0.00100000, 0.00000000, 0.00000000, 0.00000000, 0.00000000, 0.00000000
1, 0.4900, 49, 0.00000000, 0.00000000, 0.00000000, 0.00000000, 0.00000000, 0.00000000, 0.00000000, 0.00000000, 0.00000000, 0.00000000, 0.00000000, 0.00000000, 0.82760000, -0.51389998, -0.19139999, -0.11900000, 0.00100000, -0.00100000, 0.00100000, 0.00000000, 0.00000000, 0.00000000, 0.00000000
1, 0.5000, 50, 0.00000000, 0.00000000, 0.00000000, 0.00000000, 0.00000000, 0.00000000, 0.00000000, 0.00000000, 0.00000000, 0.00000000, 0.00000000, 0.00000000, 0.82760000, -0.51389998, -0.19139999, -0.11900000, 0.00000000, -0.00200000, 0.00100000, 0.00000000, 0.00000000, 0.00000000, 0.00000000
1, 0.5100, 51, 0.00000000, 0.00000000, 0.00000000, 0.00000000, 0.00000000, 0.00000000, 0.00000000, 0.00000000, 0.00000000, 0.00000000, 0.00000000, 0.00000000, 0.82760000, -0.51389998, -0.19129999, -0.11889999, 0.00100000, -0.00100000, 0.00000000, 0.00000000, 0.00000000, 0.00000000, 0.00000000
4, 0.5000, 50, 0.00000000, 0.00000000, 0.00000000, 0.00000000, 0.00000000, 0.00000000, 0.00000000, 0.00000000, 0.00000000, 0.00000000, 0.00000000, 0.00000000, 0.81000000, -0.57739997, 0.03380000, -0.09559999, 0.00400000, 0.00000000, 0.00100000, 0.00000000, 0.00000000, 0.00000000, 0.00000000
4, 0.5100, 51, 0.00000000, 0.00000000, 0.00000000, 0.00000000, 0.00000000, 0.00000000, 0.00000000, 0.00000000, 0.00000000, 0.00000000, 0.00000000, 0.00000000, 0.81000000, -0.57739997, 0.03390000, -0.09559999, 0.00200000, 0.00100000, 0.00000000, 0.00000000, 0.00000000, 0.00000000, 0.00000000
4, 0.5200, 52, 0.00000000, 0.00000000, 0.00000000, 0.00000000, 0.00000000, 0.00000000, 0.00000000, 0.00000000, 0.00000000, 0.00000000, 0.00000000, 0.00000000, 0.81009996, -0.57739997, 0.03390000, -0.09559999, 0.00000000, -0.00100000, -0.00600000, 0.00000000, 0.00000000, 0.00000000, 0.00000000
1, 0.5200, 52, 0.00000000, 0.00000000, 0.00000000, 0.00000000, 0.00000000, 0.00000000, 0.00000000, 0.00000000, 0.00000000, 0.00000000, 0.00000000, 0.00000000, 0.82760000, -0.51389998, -0.19129999, -0.11889999, 0.00000000, 0.00000000, 0.00100000, 0.00000000, 0.00000000, 0.00000000, 0.00000000
1, 0.5300, 53, 0.00000000, 0.00000000, 0.00000000, 0.00000000, 0.00000000, 0.00000000, 0.00000000, 0.00000000, 0.00000000, 0.00000000, 0.00000000, 0.00000000, 0.82769996, -0.51389998, -0.19139999, -0.11889999, -0.00300000, -0.00100000, 0.00100000, 0.00000000, 0.00000000, 0.00000000, 0.00000000
4, 0.5300, 53, 0.00000000, 0.00000000, 0.00000000, 0.00000000, 0.00000000, 0.00000000, 0.00000000, 0.00000000, 0.00000000, 0.00000000, 0.00000000, 0.00000000, 0.81000000, -0.57739997, 0.03380000, -0.09570000, 0.00100000, 0.00000000, -0.00200000, 0.00000000, 0.00000000, 0.00000000, 0.00000000
1, 0.5400, 54, 0.00000000, 0.00000000, 0.00000000, 0.00000000, 0.00000000, 0.00000000, 0.00000000, 0.00000000, 0.00000000, 0.00000000, 0.00000000, 0.00000000, 0.82769996, -0.51389998, -0.19139999, -0.11889999, 0.00100000, 0.00000000, -0.00100000, 0.00000000, 0.00000000, 0.00000000, 0.00000000
1, 0.5500, 55, 0.00000000, 0.00000000, 0.00000000, 0.00000000, 0.00000000, 0.00000000, 0.00000000, 0.00000000, 0.00000000, 0.00000000, 0.00000000, 0.00000000, 0.82769996, -0.51379997, -0.19139999, -0.11889999, -0.00100000, -0.00200000, 0.00100000, 0.00000000, 0.00000000, 0.00000000, 0.00000000
4, 0.5400, 54, 0.00000000, 0.00000000, 0.00000000, 0.00000000, 0.00000000, 0.00000000, 0.00000000, 0.00000000, 0.00000000, 0.00000000, 0.00000000, 0.00000000, 0.81009996, -0.57739997, 0.03380000, -0.09570000, -0.00300000, 0.00100000, 0.00000000, 0.00000000, 0.00000000, 0.00000000, 0.00000000
4, 0.5500, 55, 0.00000000, 0.00000000, 0.00000000, 0.00000000, 0.00000000, 0.00000000, 0.00000000, 0.00000000, 0.00000000, 0.00000000, 0.00000000, 0.00000000, 0.81009996, -0.57739997, 0.03370000, -0.09559999, -0.00200000, 0.00000000, 0.00000000, 0.00000000, 0.00000000, 0.00000000, 0.00000000
1, 0.5600, 56, 0.00000000, 0.00000000, 0.00000000, 0.00000000, 0.00000000, 0.00000000, 0.00000000, 0.00000000, 0.00000000, 0.00000000, 0.00000000, 0.00000000, 0.82769996, -0.51379997, -0.19139999, -0.11889999, -0.00100000, -0.00100000, 0.00100000, 0.00000000, 0.00000000, 0.00000000, 0.00000000
4, 0.5600, 56, 0.00000000, 0.00000000, 0.00000000, 0.00000000, 0.00000000, 0.00000000, 0.00000000, 0.00000000, 0.00000000, 0.00000000, 0.00000000, 0.00000000, 0.81009996, -0.57730001, 0.03360000, -0.09559999, 0.00000000, 0.00000000, 0.00000000, 0.00000000, 0.00000000, 0.00000000, 0.00000000
1, 0.5700, 57, 0.00000000, 0.00000000, 0.00000000, 0.00000000, 0.00000000, 0.00000000, 0.00000000, 0.00000000, 0.00000000, 0.00000000, 0.00000000, 0.00000000, 0.82769996, -0.51379997, -0.19139999, -0.11889999, 0.00000000, -0.00200000, 0.00100000, 0.00000000, 0.00000000, 0.00000000, 0.00000000
1, 0.5800, 58, 0.00000000, 0.00000000, 0.00000000, 0.00000000, 0.00000000, 0.00000000, 0.00000000, 0.00000000, 0.00000000, 0.00000000, 0.00000000, 0.00000000, 0.82769996, -0.51379997, -0.19129999, -0.11889999, 0.00000000, -0.00200000, 0.00100000, 0.00000000, 0.00000000, 0.00000000, 0.00000000
4, 0.5700, 57, 0.00000000, 0.00000000, 0.00000000, 0.00000000, 0.00000000, 0.00000000, 0.00000000, 0.00000000, 0.00000000, 0.00000000, 0.00000000, 0.00000000, 0.81009996, -0.57730001, 0.03360000, -0.09559999, 0.00000000, 0.00000000, -0.00300000, 0.00000000, 0.00000000, 0.00000000, 0.00000000
4, 0.5800, 58, 0.00000000, 0.00000000, 0.00000000, 0.00000000, 0.00000000, 0.00000000, 0.00000000, 0.00000000, 0.00000000, 0.00000000, 0.00000000, 0.00000000, 0.81009996, -0.57730001, 0.03360000, -0.09559999, 0.00600000, -0.00100000, -0.00300000, 0.00000000, 0.00000000, 0.00000000, 0.00000000
1, 0.5900, 59, 0.00000000, 0.00000000, 0.00000000, 0.00000000, 0.00000000, 0.00000000, 0.00000000, 0.00000000, 0.00000000, 0.00000000, 0.00000000, 0.00000000, 0.82769996, -0.51379997, -0.19129999, -0.11889999, 0.00200000, -0.00100000, 0.00000000, 0.00000000, 0.00000000, 0.00000000, 0.00000000
1, 0.6000, 60, 0.00000000, 0.00000000, 0.00000000, 0.00000000, 0.00000000, 0.00000000, 0.00000000, 0.00000000, 0.00000000, 0.00000000, 0.00000000, 0.00000000, 0.82769996, -0.51379997, -0.19119999, -0.11889999, 0.00500000, -0.00100000, 0.00000000, 0.00000000, 0.00000000, 0.00000000, 0.00000000
4, 0.5900, 59, 0.00000000, 0.00000000, 0.00000000, 0.00000000, 0.00000000, 0.00000000, 0.00000000, 0.00000000, 0.00000000, 0.00000000, 0.00000000, 0.00000000, 0.81009996, -0.57730001, 0.03370000, -0.09570000, 0.00800000, 0.00000000, 0.00000000, 0.00000000, 0.00000000, 0.00000000, 0.00000000
4, 0.6000, 60, 0.00000000, 0.00000000, 0.00000000, 0.00000000, 0.00000000, 0.00000000, 0.00000000, 0.00000000, 0.00000000, 0.00000000, 0.00000000, 0.00000000, 0.81009996, -0.57730001, 0.03370000, -0.09570000, 0.00400000, 0.00000000, 0.00000000, 0.00000000, 0.00000000, 0.00000000, 0.00000000
4, 0.6100, 61, 0.00000000, 0.00000000, 0.00000000, 0.00000000, 0.00000000, 0.00000000, 0.00000000, 0.00000000, 0.00000000, 0.00000000, 0.00000000, 0.00000000, 0.81009996, -0.57730001, 0.03380000, -0.09570000, 0.00000000, 0.00000000, -0.00300000, 0.00000000, 0.00000000, 0.00000000, 0.00000000
1, 0.6100, 61, 0.00000000, 0.00000000, 0.00000000, 0.00000000, 0.00000000, 0.00000000, 0.00000000, 0.00000000, 0.00000000, 0.00000000, 0.00000000, 0.00000000, 0.82769996, -0.51379997, -0.19129999, -0.11889999, 0.00000000, -0.00100000, 0.00000000, 0.00000000, 0.00000000, 0.00000000, 0.00000000
4, 0.6200, 62, 0.00000000, 0.00000000, 0.00000000, 0.00000000, 0.00000000, 0.00000000, 0.00000000, 0.00000000, 0.00000000, 0.00000000, 0.00000000, 0.00000000, 0.81009996, -0.57730001, 0.03380000, -0.09570000, 0.00000000, 0.00000000, -0.00200000, 0.00000000, 0.00000000, 0.00000000, 0.00000000
1, 0.6200, 62, 0.00000000, 0.00000000, 0.00000000, 0.00000000, 0.00000000, 0.00000000, 0.00000000, 0.00000000, 0.00000000, 0.00000000, 0.00000000, 0.00000000, 0.82769996, -0.51379997, -0.19129999, -0.11889999, 0.00000000, -0.00200000, 0.00000000, 0.00000000, 0.00000000, 0.00000000, 0.00000000
1, 0.6300, 63, 0.00000000, 0.00000000, 0.00000000, 0.00000000, 0.00000000, 0.00000000, 0.00000000, 0.00000000, 0.00000000, 0.00000000, 0.00000000, 0.00000000, 0.82769996, -0.51379997, -0.19129999, -0.11889999, 0.00000000, -0.00100000, 0.00100000, 0.00000000, 0.00000000, 0.00000000, 0.00000000
4, 0.6300, 63, 0.00000000, 0.00000000, 0.00000000, 0.00000000, 0.00000000, 0.00000000, 0.00000000, 0.00000000, 0.00000000, 0.00000000, 0.00000000, 0.00000000, 0.81009996, -0.57730001, 0.03380000, -0.09570000, -0.00200000, 0.00000000, -0.00100000, 0.00000000, 0.00000000, 0.00000000, 0.00000000
1, 0.6400, 64, 0.00000000, 0.00000000, 0.00000000, 0.00000000, 0.00000000, 0.00000000, 0.00000000, 0.00000000, 0.00000000, 0.00000000, 0.00000000, 0.00000000, 0.82769996, -0.51379997, -0.19129999, -0.11889999, 0.00000000, -0.00100000, 0.00000000, 0.00000000, 0.00000000, 0.00000000, 0.00000000
4, 0.6400, 64, 0.00000000, 0.00000000, 0.00000000, 0.00000000, 0.00000000, 0.00000000, 0.00000000, 0.00000000, 0.00000000, 0.00000000, 0.00000000, 0.00000000, 0.81009996, -0.57730001, 0.03380000, -0.09570000, -0.00300000, 0.00000000, 0.00200000, 0.00000000, 0.00000000, 0.00000000, 0.00000000
1, 0.6500, 65, 0.00000000, 0.00000000, 0.00000000, 0.00000000, 0.00000000, 0.00000000, 0.00000000, 0.00000000, 0.00000000, 0.00000000, 0.00000000, 0.00000000, 0.82769996, -0.51379997, -0.19129999, -0.11889999, -0.00100000, -0.00200000, 0.00000000, 0.00000000, 0.00000000, 0.00000000, 0.00000000
1, 0.6600, 66, 0.00000000, 0.00000000, 0.00000000, 0.00000000, 0.00000000, 0.00000000, 0.00000000, 0.00000000, 0.00000000, 0.00000000, 0.00000000, 0.00000000, 0.82779998, -0.51370001, -0.19129999, -0.11889999, -0.00300000, -0.00100000, 0.00000000, 0.00000000, 0.00000000, 0.00000000, 0.00000000
4, 0.6500, 65, 0.00000000, 0.00000000, 0.00000000, 0.00000000, 0.00000000, 0.00000000, 0.00000000, 0.00000000, 0.00000000, 0.00000000, 0.00000000, 0.00000000, 0.81019998, -0.57730001, 0.03380000, -0.09559999, -0.00400000, 0.00000000, -0.00300000, 0.00000000, 0.00000000, 0.00000000, 0.00000000
4, 0.6600, 66, 0.00000000, 0.00000000, 0.00000000, 0.00000000, 0.00000000, 0.00000000, 0.00000000, 0.00000000, 0.00000000, 0.00000000, 0.00000000, 0.00000000, 0.81009996, -0.57730001, 0.03380000, -0.09559999, 0.00200000, -0.00100000, -0.00400000, 0.00000000, 0.00000000, 0.00000000, 0.00000000
1, 0.6700, 67, 0.00000000, 0.00000000, 0.00000000, 0.00000000, 0.00000000, 0.00000000, 0.00000000, 0.00000000, 0.00000000, 0.00000000, 0.00000000, 0.00000000, 0.82779998, -0.51370001, -0.19129999, -0.11889999, 0.00000000, -0.00100000, 0.00000000, 0.00000000, 0.00000000, 0.00000000, 0.00000000
1, 0.6800, 68, 0.00000000, 0.00000000, 0.00000000, 0.00000000, 0.00000000, 0.00000000, 0.00000000, 0.00000000, 0.00000000, 0.00000000, 0.00000000, 0.00000000, 0.82779998, -0.51370001, -0.19129999, -0.11889999, 0.00100000, -0.00100000, 0.00000000, 0.00000000, 0.00000000, 0.00000000, 0.00000000
4, 0.6700, 67, 0.00000000, 0.00000000, 0.00000000, 0.00000000, 0.00000000, 0.00000000, 0.00000000, 0.00000000, 0.00000000, 0.00000000, 0.00000000, 0.00000000, 0.81019998, -0.57720000, 0.03370000, -0.09570000, 0.00400000, 0.00000000, -0.00200000, 0.00000000, 0.00000000, 0.00000000, 0.00000000
4, 0.6800, 68, 0.00000000, 0.00000000, 0.00000000, 0.00000000, 0.00000000, 0.00000000, 0.00000000, 0.00000000, 0.00000000, 0.00000000, 0.00000000, 0.00000000, 0.81019998, -0.57720000, 0.03360000, -0.09570000, 0.00400000, -0.00100000, 0.00000000, 0.00000000, 0.00000000, 0.00000000, 0.00000000
1, 0.6900, 69, 0.00000000, 0.00000000, 0.00000000, 0.00000000, 0.00000000, 0.00000000, 0.00000000, 0.00000000, 0.00000000, 0.00000000, 0.00000000, 0.00000000, 0.82779998, -0.51370001, -0.19129999, -0.11889999, 0.00000000, -0.00200000, 0.00000000, 0.00000000, 0.00000000, 0.00000000, 0.00000000
1, 0.7000, 70, 0.00000000, 0.00000000, 0.00000000, 0.00000000, 0.00000000, 0.00000000, 0.00000000, 0.00000000, 0.00000000, 0.00000000, 0.00000000, 0.00000000, 0.82779998, -0.51370001, -0.19119999, -0.11889999, 0.00200000, -0.00100000, 0.00000000, 0.00000000, 0.00000000, 0.00000000, 0.00000000
4, 0.6900, 69, 0.00000000, 0.00000000, 0.00000000, 0.00000000, 0.00000000, 0.00000000, 0.00000000, 0.00000000, 0.00000000, 0.00000000, 0.00000000, 0.00000000, 0.81019998, -0.57720000, 0.03360000, -0.09580000, 0.00500000, -0.00100000, 0.00000000, 0.00000000, 0.00000000, 0.00000000, 0.00000000
4, 0.7000, 70, 0.00000000, 0.00000000, 0.00000000, 0.00000000, 0.00000000, 0.00000000, 0.00000000, 0.00000000, 0.00000000, 0.00000000, 0.00000000, 0.00000000, 0.81009996, -0.57720000, 0.03360000, -0.09590000, 0.00500000, -0.00100000, -0.00100000, 0.00000000, 0.00000000, 0.00000000, 0.00000000
1, 0.7100, 71, 0.00000000, 0.00000000, 0.00000000, 0.00000000, 0.00000000, 0.00000000, 0.00000000, 0.00000000, 0.00000000, 0.00000000, 0.00000000, 0.00000000, 0.82779998, -0.51379997, -0.19119999, -0.11889999, 0.00300000, -0.00100000, 0.00000000, 0.00000000, 0.00000000, 0.00000000, 0.00000000
1, 0.7200, 72, 0.00000000, 0.00000000, 0.00000000, 0.00000000, 0.00000000, 0.00000000, 0.00000000, 0.00000000, 0.00000000, 0.00000000, 0.00000000, 0.00000000, 0.82779998, -0.51379997, -0.19119999, -0.11889999, 0.00200000, -0.00100000, 0.00000000, 0.00000000, 0.00000000, 0.00000000, 0.00000000
4, 0.7100, 71, 0.00000000, 0.00000000, 0.00000000, 0.00000000, 0.00000000, 0.00000000, 0.00000000, 0.00000000, 0.00000000, 0.00000000, 0.00000000, 0.00000000, 0.81009996, -0.57720000, 0.03360000, -0.09590000, 0.00100000, 0.00000000, 0.00100000, 0.00000000, 0.00000000, 0.00000000, 0.00000000
1, 0.7300, 73, 0.00000000, 0.00000000, 0.00000000, 0.00000000, 0.00000000, 0.00000000, 0.00000000, 0.00000000, 0.00000000, 0.00000000, 0.00000000, 0.00000000, 0.82779998, -0.51379997, -0.19119999, -0.11880000, 0.00000000, -0.00200000, 0.00100000, 0.00000000, 0.00000000, 0.00000000, 0.00000000
4, 0.7200, 72, 0.00000000, 0.00000000, 0.00000000, 0.00000000, 0.00000000, 0.00000000, 0.00000000, 0.00000000, 0.00000000, 0.00000000, 0.00000000, 0.00000000, 0.81009996, -0.57720000, 0.03370000, -0.09590000, -0.00300000, 0.00100000, 0.00100000, 0.00000000, 0.00000000, 0.00000000, 0.00000000
1, 0.7400, 74, 0.00000000, 0.00000000, 0.00000000, 0.00000000, 0.00000000, 0.00000000, 0.00000000, 0.00000000, 0.00000000, 0.00000000, 0.00000000, 0.00000000, 0.82779998, -0.51370001, -0.19119999, -0.11880000, -0.00100000, -0.00100000, 0.00100000, 0.00000000, 0.00000000, 0.00000000, 0.00000000
4, 0.7300, 73, 0.00000000, 0.00000000, 0.00000000, 0.00000000, 0.00000000, 0.00000000, 0.00000000, 0.00000000, 0.00000000, 0.00000000, 0.00000000, 0.00000000, 0.81019998, -0.57720000, 0.03390000, -0.09580000, -0.00400000, 0.00000000, -0.00300000, 0.00000000, 0.00000000, 0.00000000, 0.00000000
1, 0.7500, 75, 0.00000000, 0.00000000, 0.00000000, 0.00000000, 0.00000000, 0.00000000, 0.00000000, 0.00000000, 0.00000000, 0.00000000, 0.00000000, 0.00000000, 0.82779998, -0.51370001, -0.19119999, -0.11880000, 0.00000000, -0.00100000, 0.00000000, 0.00000000, 0.00000000, 0.00000000, 0.00000000
4, 0.7400, 74, 0.00000000, 0.00000000, 0.00000000, 0.00000000, 0.00000000, 0.00000000, 0.00000000, 0.00000000, 0.00000000, 0.00000000, 0.00000000, 0.00000000, 0.81009996, -0.57720000, 0.03390000, -0.09580000, -0.00200000, 0.00100000, -0.00400000, 0.00000000, 0.00000000, 0.00000000, 0.00000000
4, 0.7500, 75, 0.00000000, 0.00000000, 0.00000000, 0.00000000, 0.00000000, 0.00000000, 0.00000000, 0.00000000, 0.00000000, 0.00000000, 0.00000000, 0.00000000, 0.81009996, -0.57730001, 0.03400000, -0.09570000, 0.00100000, 0.00100000, -0.00300000, 0.00000000, 0.00000000, 0.00000000, 0.00000000
4, 0.7600, 76, 0.00000000, 0.00000000, 0.00000000, 0.00000000, 0.00000000, 0.00000000, 0.00000000, 0.00000000, 0.00000000, 0.00000000, 0.00000000, 0.00000000, 0.81009996, -0.57730001, 0.03390000, -0.09580000, 0.00300000, 0.00000000, -0.00500000, 0.00000000, 0.00000000, 0.00000000, 0.00000000
4, 0.7700, 77, 0.00000000, 0.00000000, 0.00000000, 0.00000000, 0.00000000, 0.00000000, 0.00000000, 0.00000000, 0.00000000, 0.00000000, 0.00000000, 0.00000000, 0.81009996, -0.57730001, 0.03380000, -0.09580000, 0.00400000, -0.00100000, -0.00400000, 0.00000000, 0.00000000, 0.00000000, 0.00000000
1, 0.7600, 76, 0.00000000, 0.00000000, 0.00000000, 0.00000000, 0.00000000, 0.00000000, 0.00000000, 0.00000000, 0.00000000, 0.00000000, 0.00000000, 0.00000000, 0.82779998, -0.51370001, -0.19129999, -0.11880000, -0.00200000, -0.00100000, 0.00000000, 0.00000000, 0.00000000, 0.00000000, 0.00000000
1, 0.7700, 77, 0.00000000, 0.00000000, 0.00000000, 0.00000000, 0.00000000, 0.00000000, 0.00000000, 0.00000000, 0.00000000, 0.00000000, 0.00000000, 0.00000000, 0.82779998, -0.51370001, -0.19129999, -0.11880000, -0.00100000, 0.00000000, 0.00000000, 0.00000000, 0.00000000, 0.00000000, 0.00000000
4, 0.7800, 78, 0.00000000, 0.00000000, 0.00000000, 0.00000000, 0.00000000, 0.00000000, 0.00000000, 0.00000000, 0.00000000, 0.00000000, 0.00000000, 0.00000000, 0.81009996, -0.57730001, 0.03370000, -0.09590000, 0.00500000, -0.00100000, 0.00000000, 0.00000000, 0.00000000, 0.00000000, 0.00000000
1, 0.7800, 78, 0.00000000, 0.00000000, 0.00000000, 0.00000000, 0.00000000, 0.00000000, 0.00000000, 0.00000000, 0.00000000, 0.00000000, 0.00000000, 0.00000000, 0.82779998, -0.51370001, -0.19129999, -0.11880000, 0.00000000, -0.00200000, 0.00000000, 0.00000000, 0.00000000, 0.00000000, 0.00000000
1, 0.7900, 79, 0.00000000, 0.00000000, 0.00000000, 0.00000000, 0.00000000, 0.00000000, 0.00000000, 0.00000000, 0.00000000, 0.00000000, 0.00000000, 0.00000000, 0.82779998, -0.51370001, -0.19129999, -0.11889999, 0.00100000, -0.00200000, 0.00000000, 0.00000000, 0.00000000, 0.00000000, 0.00000000
4, 0.7900, 79, 0.00000000, 0.00000000, 0.00000000, 0.00000000, 0.00000000, 0.00000000, 0.00000000, 0.00000000, 0.00000000, 0.00000000, 0.00000000, 0.00000000, 0.81009996, -0.57730001, 0.03360000, -0.09590000, 0.00100000, 0.00000000, 0.00100000, 0.00000000, 0.00000000, 0.00000000, 0.00000000
1, 0.8000, 80, 0.00000000, 0.00000000, 0.00000000, 0.00000000, 0.00000000, 0.00000000, 0.00000000, 0.00000000, 0.00000000, 0.00000000, 0.00000000, 0.00000000, 0.82779998, -0.51370001, -0.19119999, -0.11889999, 0.00100000, -0.00100000, 0.00100000, 0.00000000, 0.00000000, 0.00000000, 0.00000000
1, 0.8100, 81, 0.00000000, 0.00000000, 0.00000000, 0.00000000, 0.00000000, 0.00000000, 0.00000000, 0.00000000, 0.00000000, 0.00000000, 0.00000000, 0.00000000, 0.82779998, -0.51370001, -0.19119999, -0.11889999, 0.00000000, -0.00100000, 0.00000000, 0.00000000, 0.00000000, 0.00000000, 0.00000000
4, 0.8000, 80, 0.00000000, 0.00000000, 0.00000000, 0.00000000, 0.00000000, 0.00000000, 0.00000000, 0.00000000, 0.00000000, 0.00000000, 0.00000000, 0.00000000, 0.81009996, -0.57720000, 0.03360000, -0.09600000, 0.00200000, 0.00000000, -0.00100000, 0.00000000, 0.00000000, 0.00000000, 0.00000000
4, 0.8100, 81, 0.00000000, 0.00000000, 0.00000000, 0.00000000, 0.00000000, 0.00000000, 0.00000000, 0.00000000, 0.00000000, 0.00000000, 0.00000000, 0.00000000, 0.81009996, -0.57720000, 0.03360000, -0.09600000, 0.00300000, -0.00100000, -0.00200000, 0.00000000, 0.00000000, 0.00000000, 0.00000000
4, 0.8200, 82, 0.00000000, 0.00000000, 0.00000000, 0.00000000, 0.00000000, 0.00000000, 0.00000000, 0.00000000, 0.00000000, 0.00000000, 0.00000000, 0.00000000, 0.81009996, -0.57720000, 0.03360000, -0.09600000, 0.00200000, -0.00200000, -0.00100000, 0.00000000, 0.00000000, 0.00000000, 0.00000000
4, 0.8300, 83, 0.00000000, 0.00000000, 0.00000000, 0.00000000, 0.00000000, 0.00000000, 0.00000000, 0.00000000, 0.00000000, 0.00000000, 0.00000000, 0.00000000, 0.81009996, -0.57720000, 0.03360000, -0.09610000, 0.00300000, 0.00000000, -0.00300000, 0.00000000, 0.00000000, 0.00000000, 0.00000000
4, 0.8400, 84, 0.00000000, 0.00000000, 0.00000000, 0.00000000, 0.00000000, 0.00000000, 0.00000000, 0.00000000, 0.00000000, 0.00000000, 0.00000000, 0.00000000, 0.81009996, -0.57720000, 0.03370000, -0.09610000, 0.00500000, -0.00100000, -0.00400000, 0.00000000, 0.00000000, 0.00000000, 0.00000000
4, 0.8500, 85, 0.00000000, 0.00000000, 0.00000000, 0.00000000, 0.00000000, 0.00000000, 0.00000000, 0.00000000, 0.00000000, 0.00000000, 0.00000000, 0.00000000, 0.81009996, -0.57720000, 0.03360000, -0.09620000, 0.00100000, 0.00200000, 0.00000000, 0.00000000, 0.00000000, 0.00000000, 0.00000000
4, 0.8600, 86, 0.00000000, 0.00000000, 0.00000000, 0.00000000, 0.00000000, 0.00000000, 0.00000000, 0.00000000, 0.00000000, 0.00000000, 0.00000000, 0.00000000, 0.81009996, -0.57720000, 0.03360000, -0.09610000, -0.00500000, 0.00000000, 0.00000000, 0.00000000, 0.00000000, 0.00000000, 0.00000000
4, 0.8700, 87, 0.00000000, 0.00000000, 0.00000000, 0.00000000, 0.00000000, 0.00000000, 0.00000000, 0.00000000, 0.00000000, 0.00000000, 0.00000000, 0.00000000, 0.81019998, -0.57720000, 0.03350000, -0.09610000, -0.00400000, 0.00000000, -0.00100000, 0.00000000, 0.00000000, 0.00000000, 0.00000000
1, 0.8200, 82, 0.00000000, 0.00000000, 0.00000000, 0.00000000, 0.00000000, 0.00000000, 0.00000000, 0.00000000, 0.00000000, 0.00000000, 0.00000000, 0.00000000, 0.82779998, -0.51379997, -0.19119999, -0.11889999, 0.00200000, -0.00200000, 0.00000000, 0.00000000, 0.00000000, 0.00000000, 0.00000000
1, 0.8300, 83, 0.00000000, 0.00000000, 0.00000000, 0.00000000, 0.00000000, 0.00000000, 0.00000000, 0.00000000, 0.00000000, 0.00000000, 0.00000000, 0.00000000, 0.82779998, -0.51379997, -0.19119999, -0.11889999, 0.00100000, -0.00100000, 0.00000000, 0.00000000, 0.00000000, 0.00000000, 0.00000000
1, 0.8400, 84, 0.00000000, 0.00000000, 0.00000000, 0.00000000, 0.00000000, 0.00000000, 0.00000000, 0.00000000, 0.00000000, 0.00000000, 0.00000000, 0.00000000, 0.82779998, -0.51379997, -0.19119999, -0.11889999, 0.00000000, -0.00200000, 0.00000000, 0.00000000, 0.00000000, 0.00000000, 0.00000000
1, 0.8500, 85, 0.00000000, 0.00000000, 0.00000000, 0.00000000, 0.00000000, 0.00000000, 0.00000000, 0.00000000, 0.00000000, 0.00000000, 0.00000000, 0.00000000, 0.82779998, -0.51379997, -0.19119999, -0.11889999, 0.00100000, -0.00100000, 0.00000000, 0.00000000, 0.00000000, 0.00000000, 0.00000000
1, 0.8600, 86, 0.00000000, 0.00000000, 0.00000000, 0.00000000, 0.00000000, 0.00000000, 0.00000000, 0.00000000, 0.00000000, 0.00000000, 0.00000000, 0.00000000, 0.82779998, -0.51379997, -0.19119999, -0.11889999, 0.00100000, -0.00200000, 0.00000000, 0.00000000, 0.00000000, 0.00000000, 0.00000000
4, 0.8800, 88, 0.00000000, 0.00000000, 0.00000000, 0.00000000, 0.00000000, 0.00000000, 0.00000000, 0.00000000, 0.00000000, 0.00000000, 0.00000000, 0.00000000, 0.81009996, -0.57720000, 0.03350000, -0.09610000, 0.00000000, 0.00000000, -0.00500000, 0.00000000, 0.00000000, 0.00000000, 0.00000000
4, 0.8900, 89, 0.00000000, 0.00000000, 0.00000000, 0.00000000, 0.00000000, 0.00000000, 0.00000000, 0.00000000, 0.00000000, 0.00000000, 0.00000000, 0.00000000, 0.81009996, -0.57720000, 0.03340000, -0.09610000, 0.00100000, 0.00000000, -0.00400000, 0.00000000, 0.00000000, 0.00000000, 0.00000000
1, 0.8700, 87, 0.00000000, 0.00000000, 0.00000000, 0.00000000, 0.00000000, 0.00000000, 0.00000000, 0.00000000, 0.00000000, 0.00000000, 0.00000000, 0.00000000, 0.82779998, -0.51370001, -0.19129999, -0.11889999, -0.00300000, -0.00200000, 0.00200000, 0.00000000, 0.00000000, 0.00000000, 0.00000000
1, 0.8800, 88, 0.00000000, 0.00000000, 0.00000000, 0.00000000, 0.00000000, 0.00000000, 0.00000000, 0.00000000, 0.00000000, 0.00000000, 0.00000000, 0.00000000, 0.82779998, -0.51370001, -0.19129999, -0.11889999, 0.00000000, -0.00200000, 0.00000000, 0.00000000, 0.00000000, 0.00000000, 0.00000000
4, 0.9000, 90, 0.00000000, 0.00000000, 0.00000000, 0.00000000, 0.00000000, 0.00000000, 0.00000000, 0.00000000, 0.00000000, 0.00000000, 0.00000000, 0.00000000, 0.81009996, -0.57720000, 0.03340000, -0.09620000, 0.00400000, -0.00200000, -0.00300000, 0.00000000, 0.00000000, 0.00000000, 0.00000000
1, 0.8900, 89, 0.00000000, 0.00000000, 0.00000000, 0.00000000, 0.00000000, 0.00000000, 0.00000000, 0.00000000, 0.00000000, 0.00000000, 0.00000000, 0.00000000, 0.82769996, -0.51379997, -0.19129999, -0.11889999, 0.00000000, -0.00100000, 0.00100000, 0.00000000, 0.00000000, 0.00000000, 0.00000000
1, 0.9000, 90, 0.00000000, 0.00000000, 0.00000000, 0.00000000, 0.00000000, 0.00000000, 0.00000000, 0.00000000, 0.00000000, 0.00000000, 0.00000000, 0.00000000, 0.82769996, -0.51379997, -0.19129999, -0.11889999, 0.00000000, -0.00100000, 0.00000000, 0.00000000, 0.00000000, 0.00000000, 0.00000000
1, 0.9100, 91, 0.00000000, 0.00000000, 0.00000000, 0.00000000, 0.00000000, 0.00000000, 0.00000000, 0.00000000, 0.00000000, 0.00000000, 0.00000000, 0.00000000, 0.82769996, -0.51379997, -0.19119999, -0.11889999, 0.00000000, -0.00100000, -0.00100000, 0.00000000, 0.00000000, 0.00000000, 0.00000000
4, 0.9100, 91, 0.00000000, 0.00000000, 0.00000000, 0.00000000, 0.00000000, 0.00000000, 0.00000000, 0.00000000, 0.00000000, 0.00000000, 0.00000000, 0.00000000, 0.81009996, -0.57720000, 0.03340000, -0.09630000, 0.00500000, -0.00300000, -0.00100000, 0.00000000, 0.00000000, 0.00000000, 0.00000000
1, 0.9200, 92, 0.00000000, 0.00000000, 0.00000000, 0.00000000, 0.00000000, 0.00000000, 0.00000000, 0.00000000, 0.00000000, 0.00000000, 0.00000000, 0.00000000, 0.82769996, -0.51379997, -0.19119999, -0.11889999, 0.00100000, 0.00000000, 0.00000000, 0.00000000, 0.00000000, 0.00000000, 0.00000000
4, 0.9200, 92, 0.00000000, 0.00000000, 0.00000000, 0.00000000, 0.00000000, 0.00000000, 0.00000000, 0.00000000, 0.00000000, 0.00000000, 0.00000000, 0.00000000, 0.81009996, -0.57720000, 0.03340000, -0.09630000, 0.00400000, 0.00000000, 0.00000000, 0.00000000, 0.00000000, 0.00000000, 0.00000000
4, 0.9300, 93, 0.00000000, 0.00000000, 0.00000000, 0.00000000, 0.00000000, 0.00000000, 0.00000000, 0.00000000, 0.00000000, 0.00000000, 0.00000000, 0.00000000, 0.81009996, -0.57720000, 0.03340000, -0.09640000, 0.00000000, 0.00300000, 0.00400000, 0.00000000, 0.00000000, 0.00000000, 0.00000000
1, 0.9300, 93, 0.00000000, 0.00000000, 0.00000000, 0.00000000, 0.00000000, 0.00000000, 0.00000000, 0.00000000, 0.00000000, 0.00000000, 0.00000000, 0.00000000, 0.82769996, -0.51379997, -0.19119999, -0.11889999, 0.00100000, -0.00100000, 0.00000000, 0.00000000, 0.00000000, 0.00000000, 0.00000000
1, 0.9400, 94, 0.00000000, 0.00000000, 0.00000000, 0.00000000, 0.00000000, 0.00000000, 0.00000000, 0.00000000, 0.00000000, 0.00000000, 0.00000000, 0.00000000, 0.82769996, -0.51379997, -0.19119999, -0.11900000, 0.00000000, -0.00100000, 0.00100000, 0.00000000, 0.00000000, 0.00000000, 0.00000000
4, 0.9400, 94, 0.00000000, 0.00000000, 0.00000000, 0.00000000, 0.00000000, 0.00000000, 0.00000000, 0.00000000, 0.00000000, 0.00000000, 0.00000000, 0.00000000, 0.81009996, -0.57720000, 0.03350000, -0.09630000, -0.00400000, 0.00400000, 0.00000000, 0.00000000, 0.00000000, 0.00000000, 0.00000000
4, 0.9500, 95, 0.00000000, 0.00000000, 0.00000000, 0.00000000, 0.00000000, 0.00000000, 0.00000000, 0.00000000, 0.00000000, 0.00000000, 0.00000000, 0.00000000, 0.81009996, -0.57720000, 0.03350000, -0.09630000, -0.00100000, 0.00100000, -0.00400000, 0.00000000, 0.00000000, 0.00000000, 0.00000000
1, 0.9500, 95, 0.00000000, 0.00000000, 0.00000000, 0.00000000, 0.00000000, 0.00000000, 0.00000000, 0.00000000, 0.00000000, 0.00000000, 0.00000000, 0.00000000, 0.82779998, -0.51370001, -0.19119999, -0.11889999, -0.00200000, -0.00300000, 0.00200000, 0.00000000, 0.00000000, 0.00000000, 0.00000000
4, 0.9600, 96, 0.00000000, 0.00000000, 0.00000000, 0.00000000, 0.00000000, 0.00000000, 0.00000000, 0.00000000, 0.00000000, 0.00000000, 0.00000000, 0.00000000, 0.81009996, -0.57720000, 0.03350000, -0.09620000, 0.00100000, 0.00000000, -0.00900000, 0.00000000, 0.00000000, 0.00000000, 0.00000000
1, 0.9600, 96, 0.00000000, 0.00000000, 0.00000000, 0.00000000, 0.00000000, 0.00000000, 0.00000000, 0.00000000, 0.00000000, 0.00000000, 0.00000000, 0.00000000, 0.82779998, -0.51370001, -0.19119999, -0.11889999, 0.00000000, -0.00100000, 0.00000000, 0.00000000, 0.00000000, 0.00000000, 0.00000000
1, 0.9700, 97, 0.00000000, 0.00000000, 0.00000000, 0.00000000, 0.00000000, 0.00000000, 0.00000000, 0.00000000, 0.00000000, 0.00000000, 0.00000000, 0.00000000, 0.82779998, -0.51370001, -0.19119999, -0.11900000, 0.00000000, -0.00100000, 0.00000000, 0.00000000, 0.00000000, 0.00000000, 0.00000000
1, 0.9800, 98, 0.00000000, 0.00000000, 0.00000000, 0.00000000, 0.00000000, 0.00000000, 0.00000000, 0.00000000, 0.00000000, 0.00000000, 0.00000000, 0.00000000, 0.82769996, -0.51379997, -0.19119999, -0.11900000, -0.00200000, 0.00000000, 0.00000000, 0.00000000, 0.00000000, 0.00000000, 0.00000000
4, 0.9700, 97, 0.00000000, 0.00000000, 0.00000000, 0.00000000, 0.00000000, 0.00000000, 0.00000000, 0.00000000, 0.00000000, 0.00000000, 0.00000000, 0.00000000, 0.81019998, -0.57709998, 0.03340000, -0.09630000, 0.00500000, -0.00400000, -0.00800000, 0.00000000, 0.00000000, 0.00000000, 0.00000000
1, 0.9900, 99, 0.00000000, 0.00000000, 0.00000000, 0.00000000, 0.00000000, 0.00000000, 0.00000000, 0.00000000, 0.00000000, 0.00000000, 0.00000000, 0.00000000, 0.82769996, -0.51379997, -0.19119999, -0.11900000, 0.00000000, 0.00000000, 0.00000000, 0.00000000, 0.00000000, 0.00000000, 0.00000000
4, 0.9800, 98, 0.00000000, 0.00000000, 0.00000000, 0.00000000, 0.00000000, 0.00000000, 0.00000000, 0.00000000, 0.00000000, 0.00000000, 0.00000000, 0.00000000, 0.81019998, -0.57709998, 0.03330000, -0.09640000, 0.00700000, -0.00200000, -0.00400000, 0.00000000, 0.00000000, 0.00000000, 0.00000000
4, 0.9900, 99, 0.00000000, 0.00000000, 0.00000000, 0.00000000, 0.00000000, 0.00000000, 0.00000000, 0.00000000, 0.00000000, 0.00000000, 0.00000000, 0.00000000, 0.81009996, -0.57720000, 0.03310000, -0.09649999, 0.00300000, -0.00100000, 0.00000000, 0.00000000, 0.00000000, 0.00000000, 0.00000000
4, 1.0000, 100, 0.00000000, 0.00000000, 0.00000000, 0.00000000, 0.00000000, 0.00000000, 0.00000000, 0.00000000, 0.00000000, 0.00000000, 0.00000000, 0.00000000, 0.81009996, -0.57720000, 0.03300000, -0.09660000, 0.00200000, 0.00000000, 0.00300000, 0.00000000, 0.00000000, 0.00000000, 0.00000000
1, 1.0000, 100, 0.00000000, 0.00000000, 0.00000000, 0.00000000, 0.00000000, 0.00000000, 0.00000000, 0.00000000, 0.00000000, 0.00000000, 0.00000000, 0.00000000, 0.82769996, -0.51379997, -0.19119999, -0.11900000, 0.00000000, -0.00100000, 0.00000000, 0.00000000, 0.00000000, 0.00000000, 0.00000000
1, 1.0100, 101, 0.00000000, 0.00000000, 0.00000000, 0.00000000, 0.00000000, 0.00000000, 0.00000000, 0.00000000, 0.00000000, 0.00000000, 0.00000000, 0.00000000, 0.82769996, -0.51379997, -0.19119999, -0.11900000, 0.00100000, -0.00200000, 0.00000000, 0.00000000, 0.00000000, 0.00000000, 0.00000000
4, 1.0100, 101, 0.00000000, 0.00000000, 0.00000000, 0.00000000, 0.00000000, 0.00000000, 0.00000000, 0.00000000, 0.00000000, 0.00000000, 0.00000000, 0.00000000, 0.81009996, -0.57720000, 0.03290000, -0.09660000, 0.00000000, 0.00000000, 0.00500000, 0.00000000, 0.00000000, 0.00000000, 0.00000000
1, 1.0200, 102, 0.00000000, 0.00000000, 0.00000000, 0.00000000, 0.00000000, 0.00000000, 0.00000000, 0.00000000, 0.00000000, 0.00000000, 0.00000000, 0.00000000, 0.82769996, -0.51379997, -0.19119999, -0.11900000, 0.00100000, -0.00200000, 0.00200000, 0.00000000, 0.00000000, 0.00000000, 0.00000000
4, 1.0200, 102, 0.00000000, 0.00000000, 0.00000000, 0.00000000, 0.00000000, 0.00000000, 0.00000000, 0.00000000, 0.00000000, 0.00000000, 0.00000000, 0.00000000, 0.81009996, -0.57709998, 0.03290000, -0.09670000, 0.00000000, 0.00000000, 0.00500000, 0.00000000, 0.00000000, 0.00000000, 0.00000000
1, 1.0300, 103, 0.00000000, 0.00000000, 0.00000000, 0.00000000, 0.00000000, 0.00000000, 0.00000000, 0.00000000, 0.00000000, 0.00000000, 0.00000000, 0.00000000, 0.82769996, -0.51379997, -0.19110000, -0.11900000, 0.00200000, 0.00000000, 0.00200000, 0.00000000, 0.00000000, 0.00000000, 0.00000000
4, 1.0300, 103, 0.00000000, 0.00000000, 0.00000000, 0.00000000, 0.00000000, 0.00000000, 0.00000000, 0.00000000, 0.00000000, 0.00000000, 0.00000000, 0.00000000, 0.81019998, -0.57709998, 0.03290000, -0.09670000, 0.00100000, 0.00000000, 0.00200000, 0.00000000, 0.00000000, 0.00000000, 0.00000000
1, 1.0400, 104, 0.00000000, 0.00000000, 0.00000000, 0.00000000, 0.00000000, 0.00000000, 0.00000000, 0.00000000, 0.00000000, 0.00000000, 0.00000000, 0.00000000, 0.82769996, -0.51379997, -0.19110000, -0.11900000, 0.00200000, -0.00100000, 0.00000000, 0.00000000, 0.00000000, 0.00000000, 0.00000000
4, 1.0400, 104, 0.00000000, 0.00000000, 0.00000000, 0.00000000, 0.00000000, 0.00000000, 0.00000000, 0.00000000, 0.00000000, 0.00000000, 0.00000000, 0.00000000, 0.81019998, -0.57709998, 0.03300000, -0.09670000, 0.00000000, 0.00000000, -0.00200000, 0.00000000, 0.00000000, 0.00000000, 0.00000000
1, 1.0500, 105, 0.00000000, 0.00000000, 0.00000000, 0.00000000, 0.00000000, 0.00000000, 0.00000000, 0.00000000, 0.00000000, 0.00000000, 0.00000000, 0.00000000, 0.82769996, -0.51379997, -0.19110000, -0.11900000, -0.00100000, -0.00100000, 0.00000000, 0.00000000, 0.00000000, 0.00000000, 0.00000000
4, 1.0500, 105, 0.00000000, 0.00000000, 0.00000000, 0.00000000, 0.00000000, 0.00000000, 0.00000000, 0.00000000, 0.00000000, 0.00000000, 0.00000000, 0.00000000, 0.81009996, -0.57709998, 0.03300000, -0.09680000, -0.00100000, 0.00000000, -0.00500000, 0.00000000, 0.00000000, 0.00000000, 0.00000000
1, 1.0600, 106, 0.00000000, 0.00000000, 0.00000000, 0.00000000, 0.00000000, 0.00000000, 0.00000000, 0.00000000, 0.00000000, 0.00000000, 0.00000000, 0.00000000, 0.82769996, -0.51389998, -0.19110000, -0.11900000, -0.00100000, -0.00100000, 0.00000000, 0.00000000, 0.00000000, 0.00000000, 0.00000000
4, 1.0600, 106, 0.00000000, 0.00000000, 0.00000000, 0.00000000, 0.00000000, 0.00000000, 0.00000000, 0.00000000, 0.00000000, 0.00000000, 0.00000000, 0.00000000, 0.81009996, -0.57709998, 0.03300000, -0.09680000, -0.00200000, 0.00000000, -0.00200000, 0.00000000, 0.00000000, 0.00000000, 0.00000000
1, 1.0700, 107, 0.00000000, 0.00000000, 0.00000000, 0.00000000, 0.00000000, 0.00000000, 0.00000000, 0.00000000, 0.00000000, 0.00000000, 0.00000000, 0.00000000, 0.82769996, -0.51389998, -0.19110000, -0.11900000, -0.00100000, -0.00100000, 0.00000000, 0.00000000, 0.00000000, 0.00000000, 0.00000000
1, 1.0800, 108, 0.00000000, 0.00000000, 0.00000000, 0.00000000, 0.00000000, 0.00000000, 0.00000000, 0.00000000, 0.00000000, 0.00000000, 0.00000000, 0.00000000, 0.82769996, -0.51389998, -0.19110000, -0.11900000, -0.00300000, -0.00200000, 0.00000000, 0.00000000, 0.00000000, 0.00000000, 0.00000000
4, 1.0700, 107, 0.00000000, 0.00000000, 0.00000000, 0.00000000, 0.00000000, 0.00000000, 0.00000000, 0.00000000, 0.00000000, 0.00000000, 0.00000000, 0.00000000, 0.81009996, -0.57709998, 0.03290000, -0.09670000, -0.00700000, 0.00100000, 0.00000000, 0.00000000, 0.00000000, 0.00000000, 0.00000000
1, 1.0900, 109, 0.00000000, 0.00000000, 0.00000000, 0.00000000, 0.00000000, 0.00000000, 0.00000000, 0.00000000, 0.00000000, 0.00000000, 0.00000000, 0.00000000, 0.82769996, -0.51389998, -0.19110000, -0.11900000, -0.00200000, -0.00200000, 0.00100000, 0.00000000, 0.00000000, 0.00000000, 0.00000000
4, 1.0800, 108, 0.00000000, 0.00000000, 0.00000000, 0.00000000, 0.00000000, 0.00000000, 0.00000000, 0.00000000, 0.00000000, 0.00000000, 0.00000000, 0.00000000, 0.81009996, -0.57720000, 0.03280000, -0.09649999, -0.00700000, 0.00100000, -0.00300000, 0.00000000, 0.00000000, 0.00000000, 0.00000000
1, 1.1000, 110, 0.00000000, 0.00000000, 0.00000000, 0.00000000, 0.00000000, 0.00000000, 0.00000000, 0.00000000, 0.00000000, 0.00000000, 0.00000000, 0.00000000, 0.82769996, -0.51389998, -0.19110000, -0.11910000, 0.00000000, -0.00200000, 0.00000000, 0.00000000, 0.00000000, 0.00000000, 0.00000000
4, 1.0900, 109, 0.00000000, 0.00000000, 0.00000000, 0.00000000, 0.00000000, 0.00000000, 0.00000000, 0.00000000, 0.00000000, 0.00000000, 0.00000000, 0.00000000, 0.81009996, -0.57720000, 0.03280000, -0.09649999, -0.00200000, 0.00000000, -0.00500000, 0.00000000, 0.00000000, 0.00000000, 0.00000000
1, 1.1100, 111, 0.00000000, 0.00000000, 0.00000000, 0.00000000, 0.00000000, 0.00000000, 0.00000000, 0.00000000, 0.00000000, 0.00000000, 0.00000000, 0.00000000, 0.82769996, -0.51389998, -0.19110000, -0.11910000, 0.00000000, -0.00200000, 0.00000000, 0.00000000, 0.00000000, 0.00000000, 0.00000000
4, 1.1000, 110, 0.00000000, 0.00000000, 0.00000000, 0.00000000, 0.00000000, 0.00000000, 0.00000000, 0.00000000, 0.00000000, 0.00000000, 0.00000000, 0.00000000, 0.81009996, -0.57720000, 0.03270000, -0.09660000, 0.00400000, -0.00100000, -0.00300000, 0.00000000, 0.00000000, 0.00000000, 0.00000000
4, 1.1100, 111, 0.00000000, 0.00000000, 0.00000000, 0.00000000, 0.00000000, 0.00000000, 0.00000000, 0.00000000, 0.00000000, 0.00000000, 0.00000000, 0.00000000, 0.81009996, -0.57720000, 0.03270000, -0.09670000, 0.00700000, 0.00000000, 0.00100000, 0.00000000, 0.00000000, 0.00000000, 0.00000000
1, 1.1200, 112, 0.00000000, 0.00000000, 0.00000000, 0.00000000, 0.00000000, 0.00000000, 0.00000000, 0.00000000, 0.00000000, 0.00000000, 0.00000000, 0.00000000, 0.82760000, -0.51400000, -0.19100000, -0.11910000, 0.00100000, -0.00100000, 0.00000000, 0.00000000, 0.00000000, 0.00000000, 0.00000000
4, 1.1200, 112, 0.00000000, 0.00000000, 0.00000000, 0.00000000, 0.00000000, 0.00000000, 0.00000000, 0.00000000, 0.00000000, 0.00000000, 0.00000000, 0.00000000, 0.81009996, -0.57720000, 0.03260000, -0.09680000, 0.00600000, 0.00100000, 0.00000000, 0.00000000, 0.00000000, 0.00000000, 0.00000000
1, 1.1300, 113, 0.00000000, 0.00000000, 0.00000000, 0.00000000, 0.00000000, 0.00000000, 0.00000000, 0.00000000, 0.00000000, 0.00000000, 0.00000000, 0.00000000, 0.82760000, -0.51400000, -0.19100000, -0.11920000, 0.00100000, -0.00200000, 0.00000000, 0.00000000, 0.00000000, 0.00000000, 0.00000000
1, 1.1400, 114, 0.00000000, 0.00000000, 0.00000000, 0.00000000, 0.00000000, 0.00000000, 0.00000000, 0.00000000, 0.00000000, 0.00000000, 0.00000000, 0.00000000, 0.82760000, -0.51400000, -0.19100000, -0.11920000, 0.00100000, -0.00200000, 0.00000000, 0.00000000, 0.00000000, 0.00000000, 0.00000000
4, 1.1300, 113, 0.00000000, 0.00000000, 0.00000000, 0.00000000, 0.00000000, 0.00000000, 0.00000000, 0.00000000, 0.00000000, 0.00000000, 0.00000000, 0.00000000, 0.81009996, -0.57720000, 0.03260000, -0.09680000, 0.00200000, 0.00000000, -0.00200000, 0.00000000, 0.00000000, 0.00000000, 0.00000000
4, 1.1400, 114, 0.00000000, 0.00000000, 0.00000000, 0.00000000, 0.00000000, 0.00000000, 0.00000000, 0.00000000, 0.00000000, 0.00000000, 0.00000000, 0.00000000, 0.81009996, -0.57720000, 0.03260000, -0.09690000, -0.00200000, 0.00000000, 0.00000000, 0.00000000, 0.00000000, 0.00000000, 0.00000000
4, 1.1500, 115, 0.00000000, 0.00000000, 0.00000000, 0.00000000, 0.00000000, 0.00000000, 0.00000000, 0.00000000, 0.00000000, 0.00000000, 0.00000000, 0.00000000, 0.81009996, -0.57720000, 0.03260000, -0.09690000, -0.00300000, 0.00000000, 0.00000000, 0.00000000, 0.00000000, 0.00000000, 0.00000000
4, 1.1600, 116, 0.00000000, 0.00000000, 0.00000000, 0.00000000, 0.00000000, 0.00000000, 0.00000000, 0.00000000, 0.00000000, 0.00000000, 0.00000000, 0.00000000, 0.81009996, -0.57720000, 0.03270000, -0.09690000, 0.00100000, 0.00000000, 0.00000000, 0.00000000, 0.00000000, 0.00000000, 0.00000000
4, 1.1700, 117, 0.00000000, 0.00000000, 0.00000000, 0.00000000, 0.00000000, 0.00000000, 0.00000000, 0.00000000, 0.00000000, 0.00000000, 0.00000000, 0.00000000, 0.81000000, -0.57720000, 0.03280000, -0.09690000, 0.00500000, -0.00200000, 0.00000000, 0.00000000, 0.00000000, 0.00000000, 0.00000000
4, 1.1800, 118, 0.00000000, 0.00000000, 0.00000000, 0.00000000, 0.00000000, 0.00000000, 0.00000000, 0.00000000, 0.00000000, 0.00000000, 0.00000000, 0.00000000, 0.81000000, -0.57730001, 0.03280000, -0.09700000, 0.00500000, 0.00000000, 0.00100000, 0.00000000, 0.00000000, 0.00000000, 0.00000000
1, 1.1500, 115, 0.00000000, 0.00000000, 0.00000000, 0.00000000, 0.00000000, 0.00000000, 0.00000000, 0.00000000, 0.00000000, 0.00000000, 0.00000000, 0.00000000, 0.82760000, -0.51400000, -0.19090000, -0.11920000, 0.00100000, 0.00000000, 0.00000000, 0.00000000, 0.00000000, 0.00000000, 0.00000000
1, 1.1600, 116, 0.00000000, 0.00000000, 0.00000000, 0.00000000, 0.00000000, 0.00000000, 0.00000000, 0.00000000, 0.00000000, 0.00000000, 0.00000000, 0.00000000, 0.82760000, -0.51400000, -0.19090000, -0.11930000, -0.00100000, -0.00200000, 0.00000000, 0.00000000, 0.00000000, 0.00000000, 0.00000000
4, 1.1900, 119, 0.00000000, 0.00000000, 0.00000000, 0.00000000, 0.00000000, 0.00000000, 0.00000000, 0.00000000, 0.00000000, 0.00000000, 0.00000000, 0.00000000, 0.81000000, -0.57730001, 0.03290000, -0.09700000, 0.00500000, 0.00100000, -0.00100000, 0.00000000, 0.00000000, 0.00000000, 0.00000000
1, 1.1700, 117, 0.00000000, 0.00000000, 0.00000000, 0.00000000, 0.00000000, 0.00000000, 0.00000000, 0.00000000, 0.00000000, 0.00000000, 0.00000000, 0.00000000, 0.82760000, -0.51400000, -0.19090000, -0.11930000, -0.00100000, -0.00300000, 0.00100000, 0.00000000, 0.00000000, 0.00000000, 0.00000000
4, 1.2000, 120, 0.00000000, 0.00000000, 0.00000000, 0.00000000, 0.00000000, 0.00000000, 0.00000000, 0.00000000, 0.00000000, 0.00000000, 0.00000000, 0.00000000, 0.81000000, -0.57730001, 0.03300000, -0.09700000, 0.00400000, -0.00200000, -0.00700000, 0.00000000, 0.00000000, 0.00000000, 0.00000000
1, 1.1800, 118, 0.00000000, 0.00000000, 0.00000000, 0.00000000, 0.00000000, 0.00000000, 0.00000000, 0.00000000, 0.00000000, 0.00000000, 0.00000000, 0.00000000, 0.82760000, -0.51410002, -0.19090000, -0.11930000, 0.00000000, 0.00000000, 0.00000000, 0.00000000, 0.00000000, 0.00000000, 0.00000000
4, 1.2100, 121, 0.00000000, 0.00000000, 0.00000000, 0.00000000, 0.00000000, 0.00000000, 0.00000000, 0.00000000, 0.00000000, 0.00000000, 0.00000000, 0.00000000, 0.81000000, -0.57730001, 0.03300000, -0.09710000, 0.00600000, -0.00100000, -0.00700000, 0.00000000, 0.00000000, 0.00000000, 0.00000000
4, 1.2200, 122, 0.00000000, 0.00000000, 0.00000000, 0.00000000, 0.00000000, 0.00000000, 0.00000000, 0.00000000, 0.00000000, 0.00000000, 0.00000000, 0.00000000, 0.81000000, -0.57730001, 0.03310000, -0.09710000, 0.00300000, -0.00100000, -0.00200000, 0.00000000, 0.00000000, 0.00000000, 0.00000000
1, 1.1900, 119, 0.00000000, 0.00000000, 0.00000000, 0.00000000, 0.00000000, 0.00000000, 0.00000000, 0.00000000, 0.00000000, 0.00000000, 0.00000000, 0.00000000, 0.82760000, -0.51410002, -0.19080000, -0.11930000, 0.00100000, -0.00100000, 0.00000000, 0.00000000, 0.00000000, 0.00000000, 0.00000000
1, 1.2000, 120, 0.00000000, 0.00000000, 0.00000000, 0.00000000, 0.00000000, 0.00000000, 0.00000000, 0.00000000, 0.00000000, 0.00000000, 0.00000000, 0.00000000, 0.82760000, -0.51410002, -0.19080000, -0.11930000, 0.00100000, -0.00200000, 0.00100000, 0.00000000, 0.00000000, 0.00000000, 0.00000000
4, 1.2300, 123, 0.00000000, 0.00000000, 0.00000000, 0.00000000, 0.00000000, 0.00000000, 0.00000000, 0.00000000, 0.00000000, 0.00000000, 0.00000000, 0.00000000, 0.81000000, -0.57730001, 0.03310000, -0.09710000, 0.00000000, -0.00200000, -0.00300000, 0.00000000, 0.00000000, 0.00000000, 0.00000000
1, 1.2100, 121, 0.00000000, 0.00000000, 0.00000000, 0.00000000, 0.00000000, 0.00000000, 0.00000000, 0.00000000, 0.00000000, 0.00000000, 0.00000000, 0.00000000, 0.82760000, -0.51410002, -0.19080000, -0.11939999, 0.00000000, -0.00100000, 0.00100000, 0.00000000, 0.00000000, 0.00000000, 0.00000000
4, 1.2400, 124, 0.00000000, 0.00000000, 0.00000000, 0.00000000, 0.00000000, 0.00000000, 0.00000000, 0.00000000, 0.00000000, 0.00000000, 0.00000000, 0.00000000, 0.80989999, -0.57730001, 0.03320000, -0.09720000, 0.00300000, 0.00000000, -0.00400000, 0.00000000, 0.00000000, 0.00000000, 0.00000000
1, 1.2200, 122, 0.00000000, 0.00000000, 0.00000000, 0.00000000, 0.00000000, 0.00000000, 0.00000000, 0.00000000, 0.00000000, 0.00000000, 0.00000000, 0.00000000, 0.82749999, -0.51419997, -0.19080000, -0.11939999, 0.00400000, -0.00100000, 0.00000000, 0.00000000, 0.00000000, 0.00000000, 0.00000000
4, 1.2500, 125, 0.00000000, 0.00000000, 0.00000000, 0.00000000, 0.00000000, 0.00000000, 0.00000000, 0.00000000, 0.00000000, 0.00000000, 0.00000000, 0.00000000, 0.80989999, -0.57739997, 0.03320000, -0.09720000, 0.00000000, -0.00100000, -0.00200000, 0.00000000, 0.00000000, 0.00000000, 0.00000000
4, 1.2600, 126, 0.00000000, 0.00000000, 0.00000000, 0.00000000, 0.00000000, 0.00000000, 0.00000000, 0.00000000, 0.00000000, 0.00000000, 0.00000000, 0.00000000, 0.80989999, -0.57739997, 0.03320000, -0.09730000, 0.00100000, 0.00000000, 0.00000000, 0.00000000, 0.00000000, 0.00000000, 0.00000000
1, 1.2300, 123, 0.00000000, 0.00000000, 0.00000000, 0.00000000, 0.00000000, 0.00000000, 0.00000000, 0.00000000, 0.00000000, 0.00000000, 0.00000000, 0.00000000, 0.82749999, -0.51419997, -0.19080000, -0.11939999, -0.00100000, -0.00200000, 0.00100000, 0.00000000, 0.00000000, 0.00000000, 0.00000000
1, 1.2400, 124, 0.00000000, 0.00000000, 0.00000000, 0.00000000, 0.00000000, 0.00000000, 0.00000000, 0.00000000, 0.00000000, 0.00000000, 0.00000000, 0.00000000, 0.82749999, -0.51419997, -0.19080000, -0.11939999, -0.00300000, -0.00100000, 0.00100000, 0.00000000, 0.00000000, 0.00000000, 0.00000000
4, 1.2700, 127, 0.00000000, 0.00000000, 0.00000000, 0.00000000, 0.00000000, 0.00000000, 0.00000000, 0.00000000, 0.00000000, 0.00000000, 0.00000000, 0.00000000, 0.80989999, -0.57739997, 0.03320000, -0.09730000, 0.00000000, 0.00100000, 0.00000000, 0.00000000, 0.00000000, 0.00000000, 0.00000000
1, 1.2500, 125, 0.00000000, 0.00000000, 0.00000000, 0.00000000, 0.00000000, 0.00000000, 0.00000000, 0.00000000, 0.00000000, 0.00000000, 0.00000000, 0.00000000, 0.82749999, -0.51419997, -0.19069999, -0.11939999, 0.00100000, 0.00000000, 0.00000000, 0.00000000, 0.00000000, 0.00000000, 0.00000000
4, 1.2800, 128, 0.00000000, 0.00000000, 0.00000000, 0.00000000, 0.00000000, 0.00000000, 0.00000000, 0.00000000, 0.00000000, 0.00000000, 0.00000000, 0.00000000, 0.80979997, -0.57739997, 0.03330000, -0.09739999, 0.00400000, -0.00100000, -0.00400000, 0.00000000, 0.00000000, 0.00000000, 0.00000000
1, 1.2600, 126, 0.00000000, 0.00000000, 0.00000000, 0.00000000, 0.00000000, 0.00000000, 0.00000000, 0.00000000, 0.00000000, 0.00000000, 0.00000000, 0.00000000, 0.82749999, -0.51419997, -0.19069999, -0.11939999, 0.00000000, -0.00200000, 0.00100000, 0.00000000, 0.00000000, 0.00000000, 0.00000000
4, 1.2900, 129, 0.00000000, 0.00000000, 0.00000000, 0.00000000, 0.00000000, 0.00000000, 0.00000000, 0.00000000, 0.00000000, 0.00000000, 0.00000000, 0.00000000, 0.80979997, -0.57739997, 0.03340000, -0.09750000, 0.00500000, -0.00100000, -0.00200000, 0.00000000, 0.00000000, 0.00000000, 0.00000000
4, 1.3000, 130, 0.00000000, 0.00000000, 0.00000000, 0.00000000, 0.00000000, 0.00000000, 0.00000000, 0.00000000, 0.00000000, 0.00000000, 0.00000000, 0.00000000, 0.80979997, -0.57739997, 0.03340000, -0.09739999, -0.00200000, 0.00000000, 0.00000000, 0.00000000, 0.00000000, 0.00000000, 0.00000000
1, 1.2700, 127, 0.00000000, 0.00000000, 0.00000000, 0.00000000, 0.00000000, 0.00000000, 0.00000000, 0.00000000, 0.00000000, 0.00000000, 0.00000000, 0.00000000, 0.82749999, -0.51419997, -0.19069999, -0.11939999, 0.00000000, -0.00100000, 0.00000000, 0.00000000, 0.00000000, 0.00000000, 0.00000000
1, 1.2800, 128, 0.00000000, 0.00000000, 0.00000000, 0.00000000, 0.00000000, 0.00000000, 0.00000000, 0.00000000, 0.00000000, 0.00000000, 0.00000000, 0.00000000, 0.82749999, -0.51429999, -0.19069999, -0.11939999, 0.00200000, -0.00200000, 0.00000000, 0.00000000, 0.00000000, 0.00000000, 0.00000000
4, 1.3100, 131, 0.00000000, 0.00000000, 0.00000000, 0.00000000, 0.00000000, 0.00000000, 0.00000000, 0.00000000, 0.00000000, 0.00000000, 0.00000000, 0.00000000, 0.80979997, -0.57739997, 0.03340000, -0.09739999, -0.00100000, 0.00000000, -0.00200000, 0.00000000, 0.00000000, 0.00000000, 0.00000000
1, 1.2900, 129, 0.00000000, 0.00000000, 0.00000000, 0.00000000, 0.00000000, 0.00000000, 0.00000000, 0.00000000, 0.00000000, 0.00000000, 0.00000000, 0.00000000, 0.82749999, -0.51429999, -0.19069999, -0.11939999, 0.00000000, -0.00100000, 0.00100000, 0.00000000, 0.00000000, 0.00000000, 0.00000000
1, 1.3000, 130, 0.00000000, 0.00000000, 0.00000000, 0.00000000, 0.00000000, 0.00000000, 0.00000000, 0.00000000, 0.00000000, 0.00000000, 0.00000000, 0.00000000, 0.82749999, -0.51429999, -0.19069999, -0.11939999, 0.00000000, -0.00100000, 0.00000000, 0.00000000, 0.00000000, 0.00000000, 0.00000000
4, 1.3200, 132, 0.00000000, 0.00000000, 0.00000000, 0.00000000, 0.00000000, 0.00000000, 0.00000000, 0.00000000, 0.00000000, 0.00000000, 0.00000000, 0.00000000, 0.80979997, -0.57749999, 0.03340000, -0.09750000, 0.00400000, -0.00100000, -0.00300000, 0.00000000, 0.00000000, 0.00000000, 0.00000000
4, 1.3300, 133, 0.00000000, 0.00000000, 0.00000000, 0.00000000, 0.00000000, 0.00000000, 0.00000000, 0.00000000, 0.00000000, 0.00000000, 0.00000000, 0.00000000, 0.80979997, -0.57749999, 0.03330000, -0.09750000, 0.00700000, -0.00100000, -0.00600000, 0.00000000, 0.00000000, 0.00000000, 0.00000000
1, 1.3100, 131, 0.00000000, 0.00000000, 0.00000000, 0.00000000, 0.00000000, 0.00000000, 0.00000000, 0.00000000, 0.00000000, 0.00000000, 0.00000000, 0.00000000, 0.82749999, -0.51429999, -0.19069999, -0.11939999, -0.00200000, -0.00200000, 0.00100000, 0.00000000, 0.00000000, 0.00000000, 0.00000000
1, 1.3200, 132, 0.00000000, 0.00000000, 0.00000000, 0.00000000, 0.00000000, 0.00000000, 0.00000000, 0.00000000, 0.00000000, 0.00000000, 0.00000000, 0.00000000, 0.82749999, -0.51429999, -0.19069999, -0.11939999, -0.00400000, -0.00300000, 0.00100000, 0.00000000, 0.00000000, 0.00000000, 0.00000000
4, 1.3400, 134, 0.00000000, 0.00000000, 0.00000000, 0.00000000, 0.00000000, 0.00000000, 0.00000000, 0.00000000, 0.00000000, 0.00000000, 0.00000000, 0.00000000, 0.80979997, -0.57749999, 0.03330000, -0.09760000, 0.00800000, -0.00100000, -0.00400000, 0.00000000, 0.00000000, 0.00000000, 0.00000000
4, 1.3500, 135, 0.00000000, 0.00000000, 0.00000000, 0.00000000, 0.00000000, 0.00000000, 0.00000000, 0.00000000, 0.00000000, 0.00000000, 0.00000000, 0.00000000, 0.80969995, -0.57749999, 0.03330000, -0.09770000, 0.00800000, -0.00200000, -0.00200000, 0.00000000, 0.00000000, 0.00000000, 0.00000000
1, 1.3300, 133, 0.00000000, 0.00000000, 0.00000000, 0.00000000, 0.00000000, 0.00000000, 0.00000000, 0.00000000, 0.00000000, 0.00000000, 0.00000000, 0.00000000, 0.82749999, -0.51429999, -0.19059999, -0.11939999, 0.00000000, -0.00100000, 0.00100000, 0.00000000, 0.00000000, 0.00000000, 0.00000000
4, 1.3600, 136, 0.00000000, 0.00000000, 0.00000000, 0.00000000, 0.00000000, 0.00000000, 0.00000000, 0.00000000, 0.00000000, 0.00000000, 0.00000000, 0.00000000, 0.80969995, -0.57749999, 0.03330000, -0.09779999, 0.00600000, 0.00000000, 0.00000000, 0.00000000, 0.00000000, 0.00000000, 0.00000000
1, 1.3400, 134, 0.00000000, 0.00000000, 0.00000000, 0.00000000, 0.00000000, 0.00000000, 0.00000000, 0.00000000, 0.00000000, 0.00000000, 0.00000000, 0.00000000, 0.82749999, -0.51429999, -0.19059999, -0.11939999, 0.00000000, -0.00100000, 0.00000000, 0.00000000, 0.00000000, 0.00000000, 0.00000000
4, 1.3700, 137, 0.00000000, 0.00000000, 0.00000000, 0.00000000, 0.00000000, 0.00000000, 0.00000000, 0.00000000, 0.00000000, 0.00000000, 0.00000000, 0.00000000, 0.80969995, -0.57749999, 0.03330000, -0.09790000, 0.00000000, 0.00200000, 0.00100000, 0.00000000, 0.00000000, 0.00000000, 0.00000000
4, 1.3800, 138, 0.00000000, 0.00000000, 0.00000000, 0.00000000, 0.00000000, 0.00000000, 0.00000000, 0.00000000, 0.00000000, 0.00000000, 0.00000000, 0.00000000, 0.80969995, -0.57749999, 0.03330000, -0.09779999, -0.00500000, 0.00100000, 0.00000000, 0.00000000, 0.00000000, 0.00000000, 0.00000000
1, 1.3500, 135, 0.00000000, 0.00000000, 0.00000000, 0.00000000, 0.00000000, 0.00000000, 0.00000000, 0.00000000, 0.00000000, 0.00000000, 0.00000000, 0.00000000, 0.82749999, -0.51440001, -0.19059999, -0.11939999, 0.00000000, -0.00100000, 0.00000000, 0.00000000, 0.00000000, 0.00000000, 0.00000000
1, 1.3600, 136, 0.00000000, 0.00000000, 0.00000000, 0.00000000, 0.00000000, 0.00000000, 0.00000000, 0.00000000, 0.00000000, 0.00000000, 0.00000000, 0.00000000, 0.82749999, -0.51440001, -0.19049999, -0.11950000, 0.00100000, -0.00100000, 0.00000000, 0.00000000, 0.00000000, 0.00000000, 0.00000000
4, 1.3900, 139, 0.00000000, 0.00000000, 0.00000000, 0.00000000, 0.00000000, 0.00000000, 0.00000000, 0.00000000, 0.00000000, 0.00000000, 0.00000000, 0.00000000, 0.80969995, -0.57749999, 0.03330000, -0.09779999, 0.00000000, 0.00000000, -0.00300000, 0.00000000, 0.00000000, 0.00000000, 0.00000000
1, 1.3700, 137, 0.00000000, 0.00000000, 0.00000000, 0.00000000, 0.00000000, 0.00000000, 0.00000000, 0.00000000, 0.00000000, 0.00000000, 0.00000000, 0.00000000, 0.82749999, -0.51440001, -0.19049999, -0.11950000, 0.00200000, -0.00100000, 0.00000000, 0.00000000, 0.00000000, 0.00000000, 0.00000000
4, 1.4000, 140, 0.00000000, 0.00000000, 0.00000000, 0.00000000, 0.00000000, 0.00000000, 0.00000000, 0.00000000, 0.00000000, 0.00000000, 0.00000000, 0.00000000, 0.80969995, -0.57749999, 0.03330000, -0.09779999, 0.00700000, -0.00200000, -0.00800000, 0.00000000, 0.00000000, 0.00000000, 0.00000000
1, 1.3800, 138, 0.00000000, 0.00000000, 0.00000000, 0.00000000, 0.00000000, 0.00000000, 0.00000000, 0.00000000, 0.00000000, 0.00000000, 0.00000000, 0.00000000, 0.82749999, -0.51440001, -0.19049999, -0.11950000, 0.00000000, -0.00200000, 0.00000000, 0.00000000, 0.00000000, 0.00000000, 0.00000000
4, 1.4100, 141, 0.00000000, 0.00000000, 0.00000000, 0.00000000, 0.00000000, 0.00000000, 0.00000000, 0.00000000, 0.00000000, 0.00000000, 0.00000000, 0.00000000, 0.80969995, -0.57760000, 0.03340000, -0.09790000, 0.01000000, -0.00100000, -0.00800000, 0.00000000, 0.00000000, 0.00000000, 0.00000000
1, 1.3900, 139, 0.00000000, 0.00000000, 0.00000000, 0.00000000, 0.00000000, 0.00000000, 0.00000000, 0.00000000, 0.00000000, 0.00000000, 0.00000000, 0.00000000, 0.82749999, -0.51440001, -0.19049999, -0.11950000, -0.00200000, -0.00200000, 0.00100000, 0.00000000, 0.00000000, 0.00000000, 0.00000000
1, 1.4000, 140, 0.00000000, 0.00000000, 0.00000000, 0.00000000, 0.00000000, 0.00000000, 0.00000000, 0.00000000, 0.00000000, 0.00000000, 0.00000000, 0.00000000, 0.82749999, -0.51440001, -0.19049999, -0.11950000, -0.00200000, -0.00200000, 0.00000000, 0.00000000, 0.00000000, 0.00000000, 0.00000000
4, 1.4200, 142, 0.00000000, 0.00000000, 0.00000000, 0.00000000, 0.00000000, 0.00000000, 0.00000000, 0.00000000, 0.00000000, 0.00000000, 0.00000000, 0.00000000, 0.80960000, -0.57760000, 0.03340000, -0.09800000, 0.01100000, -0.00100000, -0.00500000, 0.00000000, 0.00000000, 0.00000000, 0.00000000
1, 1.4100, 141, 0.00000000, 0.00000000, 0.00000000, 0.00000000, 0.00000000, 0.00000000, 0.00000000, 0.00000000, 0.00000000, 0.00000000, 0.00000000, 0.00000000, 0.82739997, -0.51440001, -0.19049999, -0.11950000, 0.00000000, -0.00100000, 0.00000000, 0.00000000, 0.00000000, 0.00000000, 0.00000000
4, 1.4300, 143, 0.00000000, 0.00000000, 0.00000000, 0.00000000, 0.00000000, 0.00000000, 0.00000000, 0.00000000, 0.00000000, 0.00000000, 0.00000000, 0.00000000, 0.80960000, -0.57760000, 0.03330000, -0.09810000, 0.00800000, 0.00000000, -0.00300000, 0.00000000, 0.00000000, 0.00000000, 0.00000000
1, 1.4200, 142, 0.00000000, 0.00000000, 0.00000000, 0.00000000, 0.00000000, 0.00000000, 0.00000000, 0.00000000, 0.00000000, 0.00000000, 0.00000000, 0.00000000, 0.82739997, -0.51440001, -0.19049999, -0.11950000, 0.00000000, -0.00100000, 0.00000000, 0.00000000, 0.00000000, 0.00000000, 0.00000000
4, 1.4400, 144, 0.00000000, 0.00000000, 0.00000000, 0.00000000, 0.00000000, 0.00000000, 0.00000000, 0.00000000, 0.00000000, 0.00000000, 0.00000000, 0.00000000, 0.80960000, -0.57760000, 0.03320000, -0.09820000, 0.00600000, -0.00200000, -0.00200000, 0.00000000, 0.00000000, 0.00000000, 0.00000000
1, 1.4300, 143, 0.00000000, 0.00000000, 0.00000000, 0.00000000, 0.00000000, 0.00000000, 0.00000000, 0.00000000, 0.00000000, 0.00000000, 0.00000000, 0.00000000, 0.82739997, -0.51440001, -0.19049999, -0.11950000, 0.00100000, 0.00000000, 0.00000000, 0.00000000, 0.00000000, 0.00000000, 0.00000000
1, 1.4400, 144, 0.00000000, 0.00000000, 0.00000000, 0.00000000, 0.00000000, 0.00000000, 0.00000000, 0.00000000, 0.00000000, 0.00000000, 0.00000000, 0.00000000, 0.82739997, -0.51440001, -0.19049999, -0.11950000, 0.00100000, -0.00100000, 0.00000000, 0.00000000, 0.00000000, 0.00000000, 0.00000000
4, 1.4500, 145, 0.00000000, 0.00000000, 0.00000000, 0.00000000, 0.00000000, 0.00000000, 0.00000000, 0.00000000, 0.00000000, 0.00000000, 0.00000000, 0.00000000, 0.80960000, -0.57760000, 0.03320000, -0.09820000, 0.00300000, 0.00000000, 0.00000000, 0.00000000, 0.00000000, 0.00000000, 0.00000000
4, 1.4600, 146, 0.00000000, 0.00000000, 0.00000000, 0.00000000, 0.00000000, 0.00000000, 0.00000000, 0.00000000, 0.00000000, 0.00000000, 0.00000000, 0.00000000, 0.80960000, -0.57760000, 0.03310000, -0.09830000, 0.00200000, 0.00100000, 0.00000000, 0.00000000, 0.00000000, 0.00000000, 0.00000000
1, 1.4500, 145, 0.00000000, 0.00000000, 0.00000000, 0.00000000, 0.00000000, 0.00000000, 0.00000000, 0.00000000, 0.00000000, 0.00000000, 0.00000000, 0.00000000, 0.82739997, -0.51440001, -0.19049999, -0.11950000, 0.00000000, -0.00200000, 0.00100000, 0.00000000, 0.00000000, 0.00000000, 0.00000000
1, 1.4600, 146, 0.00000000, 0.00000000, 0.00000000, 0.00000000, 0.00000000, 0.00000000, 0.00000000, 0.00000000, 0.00000000, 0.00000000, 0.00000000, 0.00000000, 0.82739997, -0.51440001, -0.19049999, -0.11950000, 0.00100000, 0.00000000, 0.00000000, 0.00000000, 0.00000000, 0.00000000, 0.00000000
4, 1.4700, 147, 0.00000000, 0.00000000, 0.00000000, 0.00000000, 0.00000000, 0.00000000, 0.00000000, 0.00000000, 0.00000000, 0.00000000, 0.00000000, 0.00000000, 0.80960000, -0.57760000, 0.03310000, -0.09830000, 0.00600000, -0.00300000, -0.00400000, 0.00000000, 0.00000000, 0.00000000, 0.00000000
1, 1.4700, 147, 0.00000000, 0.00000000, 0.00000000, 0.00000000, 0.00000000, 0.00000000, 0.00000000, 0.00000000, 0.00000000, 0.00000000, 0.00000000, 0.00000000, 0.82739997, -0.51440001, -0.19049999, -0.11950000, 0.00000000, -0.00200000, 0.00100000, 0.00000000, 0.00000000, 0.00000000, 0.00000000
4, 1.4800, 148, 0.00000000, 0.00000000, 0.00000000, 0.00000000, 0.00000000, 0.00000000, 0.00000000, 0.00000000, 0.00000000, 0.00000000, 0.00000000, 0.00000000, 0.80960000, -0.57760000, 0.03290000, -0.09840000, 0.00800000, -0.00300000, -0.00400000, 0.00000000, 0.00000000, 0.00000000, 0.00000000
1, 1.4800, 148, 0.00000000, 0.00000000, 0.00000000, 0.00000000, 0.00000000, 0.00000000, 0.00000000, 0.00000000, 0.00000000, 0.00000000, 0.00000000, 0.00000000, 0.82739997, -0.51440001, -0.19059999, -0.11950000, -0.00300000, -0.00300000, 0.00200000, 0.00000000, 0.00000000, 0.00000000, 0.00000000
4, 1.4900, 149, 0.00000000, 0.00000000, 0.00000000, 0.00000000, 0.00000000, 0.00000000, 0.00000000, 0.00000000, 0.00000000, 0.00000000, 0.00000000, 0.00000000, 0.80960000, -0.57760000, 0.03280000, -0.09850000, 0.00900000, 0.00200000, -0.00100000, 0.00000000, 0.00000000, 0.00000000, 0.00000000
4, 1.5000, 150, 0.00000000, 0.00000000, 0.00000000, 0.00000000, 0.00000000, 0.00000000, 0.00000000, 0.00000000, 0.00000000, 0.00000000, 0.00000000, 0.00000000, 0.80960000, -0.57760000, 0.03270000, -0.09860000, 0.00100000, 0.00000000, 0.00000000, 0.00000000, 0.00000000, 0.00000000, 0.00000000
4, 1.5100, 151, 0.00000000, 0.00000000, 0.00000000, 0.00000000, 0.00000000, 0.00000000, 0.00000000, 0.00000000, 0.00000000, 0.00000000, 0.00000000, 0.00000000, 0.80960000, -0.57760000, 0.03260000, -0.09860000, -0.00100000, -0.00400000, -0.00200000, 0.00000000, 0.00000000, 0.00000000, 0.00000000
4, 1.5200, 152, 0.00000000, 0.00000000, 0.00000000, 0.00000000, 0.00000000, 0.00000000, 0.00000000, 0.00000000, 0.00000000, 0.00000000, 0.00000000, 0.00000000, 0.80960000, -0.57760000, 0.03260000, -0.09869999, 0.00300000, -0.00300000, -0.00200000, 0.00000000, 0.00000000, 0.00000000, 0.00000000
4, 1.5300, 153, 0.00000000, 0.00000000, 0.00000000, 0.00000000, 0.00000000, 0.00000000, 0.00000000, 0.00000000, 0.00000000, 0.00000000, 0.00000000, 0.00000000, 0.80960000, -0.57760000, 0.03260000, -0.09869999, 0.00200000, 0.00200000, 0.00200000, 0.00000000, 0.00000000, 0.00000000, 0.00000000
1, 1.4900, 149, 0.00000000, 0.00000000, 0.00000000, 0.00000000, 0.00000000, 0.00000000, 0.00000000, 0.00000000, 0.00000000, 0.00000000, 0.00000000, 0.00000000, 0.82749999, -0.51440001, -0.19059999, -0.11950000, 0.00100000, -0.00200000, 0.00300000, 0.00000000, 0.00000000, 0.00000000, 0.00000000
4, 1.5400, 154, 0.00000000, 0.00000000, 0.00000000, 0.00000000, 0.00000000, 0.00000000, 0.00000000, 0.00000000, 0.00000000, 0.00000000, 0.00000000, 0.00000000, 0.80960000, -0.57760000, 0.03260000, -0.09860000, 0.00200000, 0.00000000, 0.00600000, 0.00000000, 0.00000000, 0.00000000, 0.00000000
4, 1.5500, 155, 0.00000000, 0.00000000, 0.00000000, 0.00000000, 0.00000000, 0.00000000, 0.00000000, 0.00000000, 0.00000000, 0.00000000, 0.00000000, 0.00000000, 0.80960000, -0.57760000, 0.03260000, -0.09860000, 0.00300000, 0.00100000, 0.00300000, 0.00000000, 0.00000000, 0.00000000, 0.00000000
1, 1.5000, 150, 0.00000000, 0.00000000, 0.00000000, 0.00000000, 0.00000000, 0.00000000, 0.00000000, 0.00000000, 0.00000000, 0.00000000, 0.00000000, 0.00000000, 0.82749999, -0.51440001, -0.19059999, -0.11939999, 0.00700000, -0.00100000, -0.00200000, 0.00000000, 0.00000000, 0.00000000, 0.00000000
1, 1.5100, 151, 0.00000000, 0.00000000, 0.00000000, 0.00000000, 0.00000000, 0.00000000, 0.00000000, 0.00000000, 0.00000000, 0.00000000, 0.00000000, 0.00000000, 0.82749999, -0.51429999, -0.19059999, -0.11939999, 0.00000000, -0.00500000, 0.00100000, 0.00000000, 0.00000000, 0.00000000, 0.00000000
1, 1.5200, 152, 0.00000000, 0.00000000, 0.00000000, 0.00000000, 0.00000000, 0.00000000, 0.00000000, 0.00000000, 0.00000000, 0.00000000, 0.00000000, 0.00000000, 0.82749999, -0.51429999, -0.19069999, -0.11939999, -0.00100000, 0.00000000, 0.00000000, 0.00000000, 0.00000000, 0.00000000, 0.00000000
1, 1.5300, 153, 0.00000000, 0.00000000, 0.00000000, 0.00000000, 0.00000000, 0.00000000, 0.00000000, 0.00000000, 0.00000000, 0.00000000, 0.00000000, 0.00000000, 0.82749999, -0.51429999, -0.19069999, -0.11930000, 0.00200000, 0.00000000, 0.00100000, 0.00000000, 0.00000000, 0.00000000, 0.00000000
4, 1.5600, 156, 0.00000000, 0.00000000, 0.00000000, 0.00000000, 0.00000000, 0.00000000, 0.00000000, 0.00000000, 0.00000000, 0.00000000, 0.00000000, 0.00000000, 0.80960000, -0.57760000, 0.03260000, -0.09860000, -0.00100000, 0.00000000, -0.00400000, 0.00000000, 0.00000000, 0.00000000, 0.00000000
1, 1.5400, 154, 0.00000000, 0.00000000, 0.00000000, 0.00000000, 0.00000000, 0.00000000, 0.00000000, 0.00000000, 0.00000000, 0.00000000, 0.00000000, 0.00000000, 0.82749999, -0.51429999, -0.19069999, -0.11930000, 0.00100000, -0.00400000, 0.00000000, 0.00000000, 0.00000000, 0.00000000, 0.00000000
1, 1.5500, 155, 0.00000000, 0.00000000, 0.00000000, 0.00000000, 0.00000000, 0.00000000, 0.00000000, 0.00000000, 0.00000000, 0.00000000, 0.00000000, 0.00000000, 0.82749999, -0.51429999, -0.19080000, -0.11930000, -0.00200000, -0.00100000, 0.00100000, 0.00000000, 0.00000000, 0.00000000, 0.00000000
1, 1.5600, 156, 0.00000000, 0.00000000, 0.00000000, 0.00000000, 0.00000000, 0.00000000, 0.00000000, 0.00000000, 0.00000000, 0.00000000, 0.00000000, 0.00000000, 0.82749999, -0.51429999, -0.19080000, -0.11920000, 0.00000000, -0.00100000, 0.00100000, 0.00000000, 0.00000000, 0.00000000, 0.00000000
1, 1.5700, 157, 0.00000000, 0.00000000, 0.00000000, 0.00000000, 0.00000000, 0.00000000, 0.00000000, 0.00000000, 0.00000000, 0.00000000, 0.00000000, 0.00000000, 0.82739997, -0.51429999, -0.19090000, -0.11920000, -0.00200000, -0.00200000, 0.00100000, 0.00000000, 0.00000000, 0.00000000, 0.00000000
1, 1.5800, 158, 0.00000000, 0.00000000, 0.00000000, 0.00000000, 0.00000000, 0.00000000, 0.00000000, 0.00000000, 0.00000000, 0.00000000, 0.00000000, 0.00000000, 0.82739997, -0.51429999, -0.19090000, -0.11910000, -0.00100000, -0.00100000, 0.00100000, 0.00000000, 0.00000000, 0.00000000, 0.00000000
1, 1.5900, 159, 0.00000000, 0.00000000, 0.00000000, 0.00000000, 0.00000000, 0.00000000, 0.00000000, 0.00000000, 0.00000000, 0.00000000, 0.00000000, 0.00000000, 0.82739997, -0.51440001, -0.19090000, -0.11910000, 0.00000000, -0.00100000, 0.00000000, 0.00000000, 0.00000000, 0.00000000, 0.00000000
1, 1.6000, 160, 0.00000000, 0.00000000, 0.00000000, 0.00000000, 0.00000000, 0.00000000, 0.00000000, 0.00000000, 0.00000000, 0.00000000, 0.00000000, 0.00000000, 0.82739997, -0.51440001, -0.19100000, -0.11910000, -0.00100000, 0.00000000, 0.00000000, 0.00000000, 0.00000000, 0.00000000, 0.00000000
4, 1.5700, 157, 0.00000000, 0.00000000, 0.00000000, 0.00000000, 0.00000000, 0.00000000, 0.00000000, 0.00000000, 0.00000000, 0.00000000, 0.00000000, 0.00000000, 0.80960000, -0.57760000, 0.03250000, -0.09869999, -0.00300000, 0.00000000, -0.00300000, 0.00000000, 0.00000000, 0.00000000, 0.00000000
1, 1.6100, 161, 0.00000000, 0.00000000, 0.00000000, 0.00000000, 0.00000000, 0.00000000, 0.00000000, 0.00000000, 0.00000000, 0.00000000, 0.00000000, 0.00000000, 0.82739997, -0.51440001, -0.19100000, -0.11910000, -0.00400000, -0.00300000, 0.00100000, 0.00000000, 0.00000000, 0.00000000, 0.00000000
1, 1.6200, 162, 0.00000000, 0.00000000, 0.00000000, 0.00000000, 0.00000000, 0.00000000, 0.00000000, 0.00000000, 0.00000000, 0.00000000, 0.00000000, 0.00000000, 0.82739997, -0.51440001, -0.19100000, -0.11910000, -0.00400000, -0.00300000, 0.00200000, 0.00000000, 0.00000000, 0.00000000, 0.00000000
4, 1.5800, 158, 0.00000000, 0.00000000, 0.00000000, 0.00000000, 0.00000000, 0.00000000, 0.00000000, 0.00000000, 0.00000000, 0.00000000, 0.00000000, 0.00000000, 0.80960000, -0.57760000, 0.03230000, -0.09869999, -0.00700000, 0.00100000, 0.00000000, 0.00000000, 0.00000000, 0.00000000, 0.00000000
4, 1.5900, 159, 0.00000000, 0.00000000, 0.00000000, 0.00000000, 0.00000000, 0.00000000, 0.00000000, 0.00000000, 0.00000000, 0.00000000, 0.00000000, 0.00000000, 0.80960000, -0.57760000, 0.03220000, -0.09869999, -0.01400000, 0.00200000, 0.00400000, 0.00000000, 0.00000000, 0.00000000, 0.00000000
4, 1.6000, 160, 0.00000000, 0.00000000, 0.00000000, 0.00000000, 0.00000000, 0.00000000, 0.00000000, 0.00000000, 0.00000000, 0.00000000, 0.00000000, 0.00000000, 0.80960000, -0.57760000, 0.03220000, -0.09860000, -0.01700000, 0.00300000, 0.00200000, 0.00000000, 0.00000000, 0.00000000, 0.00000000
4, 1.6100, 161, 0.00000000, 0.00000000, 0.00000000, 0.00000000, 0.00000000, 0.00000000, 0.00000000, 0.00000000, 0.00000000, 0.00000000, 0.00000000, 0.00000000, 0.80960000, -0.57760000, 0.03220000, -0.09840000, -0.01700000, 0.00200000, 0.00100000, 0.00000000, 0.00000000, 0.00000000, 0.00000000
4, 1.6200, 162, 0.00000000, 0.00000000, 0.00000000, 0.00000000, 0.00000000, 0.00000000, 0.00000000, 0.00000000, 0.00000000, 0.00000000, 0.00000000, 0.00000000, 0.80960000, -0.57760000, 0.03230000, -0.09830000, -0.01100000, 0.00100000, 0.00000000, 0.00000000, 0.00000000, 0.00000000, 0.00000000
1, 1.6300, 163, 0.00000000, 0.00000000, 0.00000000, 0.00000000, 0.00000000, 0.00000000, 0.00000000, 0.00000000, 0.00000000, 0.00000000, 0.00000000, 0.00000000, 0.82739997, -0.51440001, -0.19100000, -0.11910000, -0.00200000, -0.00200000, 0.00200000, 0.00000000, 0.00000000, 0.00000000, 0.00000000
4, 1.6300, 163, 0.00000000, 0.00000000, 0.00000000, 0.00000000, 0.00000000, 0.00000000, 0.00000000, 0.00000000, 0.00000000, 0.00000000, 0.00000000, 0.00000000, 0.80960000, -0.57769996, 0.03230000, -0.09820000, 0.00000000, 0.00000000, -0.00400000, 0.00000000, 0.00000000, 0.00000000, 0.00000000
1, 1.6400, 164, 0.00000000, 0.00000000, 0.00000000, 0.00000000, 0.00000000, 0.00000000, 0.00000000, 0.00000000, 0.00000000, 0.00000000, 0.00000000, 0.00000000, 0.82739997, -0.51449996, -0.19100000, -0.11910000, -0.00300000, -0.00200000, 0.00000000, 0.00000000, 0.00000000, 0.00000000, 0.00000000
4, 1.6400, 164, 0.00000000, 0.00000000, 0.00000000, 0.00000000, 0.00000000, 0.00000000, 0.00000000, 0.00000000, 0.00000000, 0.00000000, 0.00000000, 0.00000000, 0.80960000, -0.57769996, 0.03240000, -0.09810000, 0.01100000, -0.00300000, -0.00700000, 0.00000000, 0.00000000, 0.00000000, 0.00000000
1, 1.6500, 165, 0.00000000, 0.00000000, 0.00000000, 0.00000000, 0.00000000, 0.00000000, 0.00000000, 0.00000000, 0.00000000, 0.00000000, 0.00000000, 0.00000000, 0.82729995, -0.51449996, -0.19090000, -0.11910000, 0.00000000, -0.00100000, 0.00000000, 0.00000000, 0.00000000, 0.00000000, 0.00000000
1, 1.6600, 166, 0.00000000, 0.00000000, 0.00000000, 0.00000000, 0.00000000, 0.00000000, 0.00000000, 0.00000000, 0.00000000, 0.00000000, 0.00000000, 0.00000000, 0.82729995, -0.51459998, -0.19090000, -0.11910000, 0.00200000, 0.00000000, -0.00100000, 0.00000000, 0.00000000, 0.00000000, 0.00000000
4, 1.6500, 165, 0.00000000, 0.00000000, 0.00000000, 0.00000000, 0.00000000, 0.00000000, 0.00000000, 0.00000000, 0.00000000, 0.00000000, 0.00000000, 0.00000000, 0.80960000, -0.57769996, 0.03240000, -0.09820000, 0.01800000, -0.00300000, -0.01100000, 0.00000000, 0.00000000, 0.00000000, 0.00000000
1, 1.6700, 167, 0.00000000, 0.00000000, 0.00000000, 0.00000000, 0.00000000, 0.00000000, 0.00000000, 0.00000000, 0.00000000, 0.00000000, 0.00000000, 0.00000000, 0.82729995, -0.51459998, -0.19080000, -0.11910000, 0.00400000, 0.00000000, -0.00100000, 0.00000000, 0.00000000, 0.00000000, 0.00000000
4, 1.6600, 166, 0.00000000, 0.00000000, 0.00000000, 0.00000000, 0.00000000, 0.00000000, 0.00000000, 0.00000000, 0.00000000, 0.00000000, 0.00000000, 0.00000000, 0.80960000, -0.57769996, 0.03240000, -0.09820000, 0.02200000, -0.00400000, -0.01000000, 0.00000000, 0.00000000, 0.00000000, 0.00000000
4, 1.6700, 167, 0.00000000, 0.00000000, 0.00000000, 0.00000000, 0.00000000, 0.00000000, 0.00000000, 0.00000000, 0.00000000, 0.00000000, 0.00000000, 0.00000000, 0.80949998, -0.57779998, 0.03240000, -0.09840000, 0.01500000, 0.00000000, -0.00200000, 0.00000000, 0.00000000, 0.00000000, 0.00000000
4, 1.6800, 168, 0.00000000, 0.00000000, 0.00000000, 0.00000000, 0.00000000, 0.00000000, 0.00000000, 0.00000000, 0.00000000, 0.00000000, 0.00000000, 0.00000000, 0.80949998, -0.57779998, 0.03240000, -0.09840000, 0.00300000, 0.00000000, -0.00100000, 0.00000000, 0.00000000, 0.00000000, 0.00000000
1, 1.6800, 168, 0.00000000, 0.00000000, 0.00000000, 0.00000000, 0.00000000, 0.00000000, 0.00000000, 0.00000000, 0.00000000, 0.00000000, 0.00000000, 0.00000000, 0.82729995, -0.51459998, -0.19080000, -0.11910000, 0.00700000, -0.00100000, 0.00000000, 0.00000000, 0.00000000, 0.00000000, 0.00000000
1, 1.6900, 169, 0.00000000, 0.00000000, 0.00000000, 0.00000000, 0.00000000, 0.00000000, 0.00000000, 0.00000000, 0.00000000, 0.00000000, 0.00000000, 0.00000000, 0.82729995, -0.51459998, -0.19080000, -0.11910000, 0.00100000, -0.00100000, 0.00000000, 0.00000000, 0.00000000, 0.00000000, 0.00000000
4, 1.6900, 169, 0.00000000, 0.00000000, 0.00000000, 0.00000000, 0.00000000, 0.00000000, 0.00000000, 0.00000000, 0.00000000, 0.00000000, 0.00000000, 0.00000000, 0.80949998, -0.57779998, 0.03240000, -0.09850000, -0.00200000, 0.00000000, -0.00200000, 0.00000000, 0.00000000, 0.00000000, 0.00000000
1, 1.7000, 170, 0.00000000, 0.00000000, 0.00000000, 0.00000000, 0.00000000, 0.00000000, 0.00000000, 0.00000000, 0.00000000, 0.00000000, 0.00000000, 0.00000000, 0.82729995, -0.51459998, -0.19080000, -0.11910000, -0.00100000, -0.00200000, 0.00000000, 0.00000000, 0.00000000, 0.00000000, 0.00000000
1, 1.7100, 171, 0.00000000, 0.00000000, 0.00000000, 0.00000000, 0.00000000, 0.00000000, 0.00000000, 0.00000000, 0.00000000, 0.00000000, 0.00000000, 0.00000000, 0.82729995, -0.51459998, -0.19090000, -0.11910000, -0.00200000, -0.00100000, 0.00100000, 0.00000000, 0.00000000, 0.00000000, 0.00000000
4, 1.7000, 170, 0.00000000, 0.00000000, 0.00000000, 0.00000000, 0.00000000, 0.00000000, 0.00000000, 0.00000000, 0.00000000, 0.00000000, 0.00000000, 0.00000000, 0.80949998, -0.57769996, 0.03240000, -0.09850000, -0.01000000, 0.00300000, 0.00000000, 0.00000000, 0.00000000, 0.00000000, 0.00000000
1, 1.7200, 172, 0.00000000, 0.00000000, 0.00000000, 0.00000000, 0.00000000, 0.00000000, 0.00000000, 0.00000000, 0.00000000, 0.00000000, 0.00000000, 0.00000000, 0.82729995, -0.51459998, -0.19090000, -0.11910000, -0.00500000, -0.00300000, 0.00000000, 0.00000000, 0.00000000, 0.00000000, 0.00000000
4, 1.7100, 171, 0.00000000, 0.00000000, 0.00000000, 0.00000000, 0.00000000, 0.00000000, 0.00000000, 0.00000000, 0.00000000, 0.00000000, 0.00000000, 0.00000000, 0.80949998, -0.57769996, 0.03230000, -0.09840000, -0.01500000, 0.00200000, 0.00000000, 0.00000000, 0.00000000, 0.00000000, 0.00000000
4, 1.7200, 172, 0.00000000, 0.00000000, 0.00000000, 0.00000000, 0.00000000, 0.00000000, 0.00000000, 0.00000000, 0.00000000, 0.00000000, 0.00000000, 0.00000000, 0.80960000, -0.57769996, 0.03220000, -0.09840000, -0.01000000, 0.00000000, 0.00000000, 0.00000000, 0.00000000, 0.00000000, 0.00000000
4, 1.7300, 173, 0.00000000, 0.00000000, 0.00000000, 0.00000000, 0.00000000, 0.00000000, 0.00000000, 0.00000000, 0.00000000, 0.00000000, 0.00000000, 0.00000000, 0.80960000, -0.57769996, 0.03220000, -0.09840000, -0.00600000, -0.00200000, 0.00000000, 0.00000000, 0.00000000, 0.00000000, 0.00000000
1, 1.7300, 173, 0.00000000, 0.00000000, 0.00000000, 0.00000000, 0.00000000, 0.00000000, 0.00000000, 0.00000000, 0.00000000, 0.00000000, 0.00000000, 0.00000000, 0.82729995, -0.51459998, -0.19090000, -0.11910000, -0.00500000, -0.00200000, 0.00000000, 0.00000000, 0.00000000, 0.00000000, 0.00000000
1, 1.7400, 174, 0.00000000, 0.00000000, 0.00000000, 0.00000000, 0.00000000, 0.00000000, 0.00000000, 0.00000000, 0.00000000, 0.00000000, 0.00000000, 0.00000000, 0.82729995, -0.51459998, -0.19090000, -0.11910000, -0.00200000, -0.00200000, 0.00100000, 0.00000000, 0.00000000, 0.00000000, 0.00000000
4, 1.7400, 174, 0.00000000, 0.00000000, 0.00000000, 0.00000000, 0.00000000, 0.00000000, 0.00000000, 0.00000000, 0.00000000, 0.00000000, 0.00000000, 0.00000000, 0.80960000, -0.57769996, 0.03210000, -0.09840000, -0.00100000, 0.00000000, 0.00300000, 0.00000000, 0.00000000, 0.00000000, 0.00000000
1, 1.7500, 175, 0.00000000, 0.00000000, 0.00000000, 0.00000000, 0.00000000, 0.00000000, 0.00000000, 0.00000000, 0.00000000, 0.00000000, 0.00000000, 0.00000000, 0.82729995, -0.51459998, -0.19080000, -0.11910000, 0.00200000, -0.00100000, 0.00000000, 0.00000000, 0.00000000, 0.00000000, 0.00000000
4, 1.7500, 175, 0.00000000, 0.00000000, 0.00000000, 0.00000000, 0.00000000, 0.00000000, 0.00000000, 0.00000000, 0.00000000, 0.00000000, 0.00000000, 0.00000000, 0.80949998, -0.57769996, 0.03230000, -0.09830000, 0.00400000, 0.00000000, 0.00300000, 0.00000000, 0.00000000, 0.00000000, 0.00000000
1, 1.7600, 176, 0.00000000, 0.00000000, 0.00000000, 0.00000000, 0.00000000, 0.00000000, 0.00000000, 0.00000000, 0.00000000, 0.00000000, 0.00000000, 0.00000000, 0.82729995, -0.51459998, -0.19080000, -0.11910000, 0.00200000, -0.00100000, 0.00100000, 0.00000000, 0.00000000, 0.00000000, 0.00000000
4, 1.7600, 176, 0.00000000, 0.00000000, 0.00000000, 0.00000000, 0.00000000, 0.00000000, 0.00000000, 0.00000000, 0.00000000, 0.00000000, 0.00000000, 0.00000000, 0.80949998, -0.57779998, 0.03240000, -0.09830000, 0.01000000, 0.00000000, 0.00000000, 0.00000000, 0.00000000, 0.00000000, 0.00000000
4, 1.7700, 177, 0.00000000, 0.00000000, 0.00000000, 0.00000000, 0.00000000, 0.00000000, 0.00000000, 0.00000000, 0.00000000, 0.00000000, 0.00000000, 0.00000000, 0.80949998, -0.57779998, 0.03260000, -0.09830000, 0.01400000, -0.00200000, -0.00300000, 0.00000000, 0.00000000, 0.00000000, 0.00000000
1, 1.7700, 177, 0.00000000, 0.00000000, 0.00000000, 0.00000000, 0.00000000, 0.00000000, 0.00000000, 0.00000000, 0.00000000, 0.00000000, 0.00000000, 0.00000000, 0.82729995, -0.51470000, -0.19069999, -0.11920000, 0.00200000, -0.00100000, 0.00100000, 0.00000000, 0.00000000, 0.00000000, 0.00000000
1, 1.7800, 178, 0.00000000, 0.00000000, 0.00000000, 0.00000000, 0.00000000, 0.00000000, 0.00000000, 0.00000000, 0.00000000, 0.00000000, 0.00000000, 0.00000000, 0.82729995, -0.51470000, -0.19069999, -0.11920000, 0.00200000, -0.00200000, 0.00100000, 0.00000000, 0.00000000, 0.00000000, 0.00000000
4, 1.7800, 178, 0.00000000, 0.00000000, 0.00000000, 0.00000000, 0.00000000, 0.00000000, 0.00000000, 0.00000000, 0.00000000, 0.00000000, 0.00000000, 0.00000000, 0.80949998, -0.57779998, 0.03280000, -0.09830000, 0.01900000, -0.00200000, -0.00500000, 0.00000000, 0.00000000, 0.00000000, 0.00000000
4, 1.7900, 179, 0.00000000, 0.00000000, 0.00000000, 0.00000000, 0.00000000, 0.00000000, 0.00000000, 0.00000000, 0.00000000, 0.00000000, 0.00000000, 0.00000000, 0.80949998, -0.57779998, 0.03290000, -0.09840000, 0.01300000, 0.00100000, -0.00200000, 0.00000000, 0.00000000, 0.00000000, 0.00000000
4, 1.8000, 180, 0.00000000, 0.00000000, 0.00000000, 0.00000000, 0.00000000, 0.00000000, 0.00000000, 0.00000000, 0.00000000, 0.00000000, 0.00000000, 0.00000000, 0.80949998, -0.57779998, 0.03290000, -0.09840000, 0.00000000, 0.00200000, -0.00400000, 0.00000000, 0.00000000, 0.00000000, 0.00000000
1, 1.7900, 179, 0.00000000, 0.00000000, 0.00000000, 0.00000000, 0.00000000, 0.00000000, 0.00000000, 0.00000000, 0.00000000, 0.00000000, 0.00000000, 0.00000000, 0.82729995, -0.51470000, -0.19069999, -0.11910000, 0.00300000, -0.00100000, 0.00000000, 0.00000000, 0.00000000, 0.00000000, 0.00000000
1, 1.8000, 180, 0.00000000, 0.00000000, 0.00000000, 0.00000000, 0.00000000, 0.00000000, 0.00000000, 0.00000000, 0.00000000, 0.00000000, 0.00000000, 0.00000000, 0.82729995, -0.51470000, -0.19069999, -0.11910000, 0.00000000, 0.00000000, 0.00100000, 0.00000000, 0.00000000, 0.00000000, 0.00000000
4, 1.8100, 181, 0.00000000, 0.00000000, 0.00000000, 0.00000000, 0.00000000, 0.00000000, 0.00000000, 0.00000000, 0.00000000, 0.00000000, 0.00000000, 0.00000000, 0.80949998, -0.57779998, 0.03280000, -0.09840000, -0.00600000, 0.00100000, -0.00800000, 0.00000000, 0.00000000, 0.00000000, 0.00000000
1, 1.8100, 181, 0.00000000, 0.00000000, 0.00000000, 0.00000000, 0.00000000, 0.00000000, 0.00000000, 0.00000000, 0.00000000, 0.00000000, 0.00000000, 0.00000000, 0.82729995, -0.51470000, -0.19069999, -0.11910000, -0.00200000, 0.00000000, 0.00000000, 0.00000000, 0.00000000, 0.00000000, 0.00000000
1, 1.8200, 182, 0.00000000, 0.00000000, 0.00000000, 0.00000000, 0.00000000, 0.00000000, 0.00000000, 0.00000000, 0.00000000, 0.00000000, 0.00000000, 0.00000000, 0.82729995, -0.51470000, -0.19069999, -0.11910000, -0.00300000, -0.00100000, 0.00100000, 0.00000000, 0.00000000, 0.00000000, 0.00000000
1, 1.8300, 183, 0.00000000, 0.00000000, 0.00000000, 0.00000000, 0.00000000, 0.00000000, 0.00000000, 0.00000000, 0.00000000, 0.00000000, 0.00000000, 0.00000000, 0.82720000, -0.51470000, -0.19069999, -0.11910000, -0.00100000, -0.00200000, 0.00000000, 0.00000000, 0.00000000, 0.00000000, 0.00000000
4, 1.8200, 182, 0.00000000, 0.00000000, 0.00000000, 0.00000000, 0.00000000, 0.00000000, 0.00000000, 0.00000000, 0.00000000, 0.00000000, 0.00000000, 0.00000000, 0.80949998, -0.57779998, 0.03280000, -0.09850000, -0.00900000, -0.00100000, -0.00700000, 0.00000000, 0.00000000, 0.00000000, 0.00000000
1, 1.8400, 184, 0.00000000, 0.00000000, 0.00000000, 0.00000000, 0.00000000, 0.00000000, 0.00000000, 0.00000000, 0.00000000, 0.00000000, 0.00000000, 0.00000000, 0.82720000, -0.51470000, -0.19069999, -0.11910000, -0.00100000, -0.00200000, 0.00000000, 0.00000000, 0.00000000, 0.00000000, 0.00000000
4, 1.8300, 183, 0.00000000, 0.00000000, 0.00000000, 0.00000000, 0.00000000, 0.00000000, 0.00000000, 0.00000000, 0.00000000, 0.00000000, 0.00000000, 0.00000000, 0.80949998, -0.57779998, 0.03270000, -0.09850000, -0.00600000, -0.00100000, -0.00400000, 0.00000000, 0.00000000, 0.00000000, 0.00000000
4, 1.8400, 184, 0.00000000, 0.00000000, 0.00000000, 0.00000000, 0.00000000, 0.00000000, 0.00000000, 0.00000000, 0.00000000, 0.00000000, 0.00000000, 0.00000000, 0.80949998, -0.57779998, 0.03270000, -0.09850000, -0.00100000, 0.00000000, -0.00200000, 0.00000000, 0.00000000, 0.00000000, 0.00000000
1, 1.8500, 185, 0.00000000, 0.00000000, 0.00000000, 0.00000000, 0.00000000, 0.00000000, 0.00000000, 0.00000000, 0.00000000, 0.00000000, 0.00000000, 0.00000000, 0.82720000, -0.51470000, -0.19069999, -0.11910000, -0.00200000, -0.00200000, 0.00100000, 0.00000000, 0.00000000, 0.00000000, 0.00000000
1, 1.8600, 186, 0.00000000, 0.00000000, 0.00000000, 0.00000000, 0.00000000, 0.00000000, 0.00000000, 0.00000000, 0.00000000, 0.00000000, 0.00000000, 0.00000000, 0.82720000, -0.51470000, -0.19069999, -0.11910000, 0.00000000, -0.00100000, 0.00000000, 0.00000000, 0.00000000, 0.00000000, 0.00000000
4, 1.8500, 185, 0.00000000, 0.00000000, 0.00000000, 0.00000000, 0.00000000, 0.00000000, 0.00000000, 0.00000000, 0.00000000, 0.00000000, 0.00000000, 0.00000000, 0.80939996, -0.57779998, 0.03260000, -0.09850000, 0.00500000, -0.00100000, -0.00300000, 0.00000000, 0.00000000, 0.00000000, 0.00000000
4, 1.8600, 186, 0.00000000, 0.00000000, 0.00000000, 0.00000000, 0.00000000, 0.00000000, 0.00000000, 0.00000000, 0.00000000, 0.00000000, 0.00000000, 0.00000000, 0.80939996, -0.57789999, 0.03270000, -0.09869999, 0.00800000, 0.00000000, 0.00000000, 0.00000000, 0.00000000, 0.00000000, 0.00000000
1, 1.8700, 187, 0.00000000, 0.00000000, 0.00000000, 0.00000000, 0.00000000, 0.00000000, 0.00000000, 0.00000000, 0.00000000, 0.00000000, 0.00000000, 0.00000000, 0.82720000, -0.51480001, -0.19059999, -0.11920000, 0.00100000, -0.00100000, 0.00000000, 0.00000000, 0.00000000, 0.00000000, 0.00000000
4, 1.8700, 187, 0.00000000, 0.00000000, 0.00000000, 0.00000000, 0.00000000, 0.00000000, 0.00000000, 0.00000000, 0.00000000, 0.00000000, 0.00000000, 0.00000000, 0.80939996, -0.57779998, 0.03270000, -0.09869999, 0.00600000, 0.00000000, 0.00500000, 0.00000000, 0.00000000, 0.00000000, 0.00000000
1, 1.8800, 188, 0.00000000, 0.00000000, 0.00000000, 0.00000000, 0.00000000, 0.00000000, 0.00000000, 0.00000000, 0.00000000, 0.00000000, 0.00000000, 0.00000000, 0.82720000, -0.51480001, -0.19059999, -0.11920000, 0.00200000, 0.00000000, 0.00000000, 0.00000000, 0.00000000, 0.00000000, 0.00000000
1, 1.8900, 189, 0.00000000, 0.00000000, 0.00000000, 0.00000000, 0.00000000, 0.00000000, 0.00000000, 0.00000000, 0.00000000, 0.00000000, 0.00000000, 0.00000000, 0.82720000, -0.51480001, -0.19049999, -0.11920000, 0.00300000, -0.00100000, 0.00100000, 0.00000000, 0.00000000, 0.00000000, 0.00000000
4, 1.8800, 188, 0.00000000, 0.00000000, 0.00000000, 0.00000000, 0.00000000, 0.00000000, 0.00000000, 0.00000000, 0.00000000, 0.00000000, 0.00000000, 0.00000000, 0.80939996, -0.57779998, 0.03280000, -0.09869999, 0.00400000, 0.00000000, 0.00600000, 0.00000000, 0.00000000, 0.00000000, 0.00000000
1, 1.9000, 190, 0.00000000, 0.00000000, 0.00000000, 0.00000000, 0.00000000, 0.00000000, 0.00000000, 0.00000000, 0.00000000, 0.00000000, 0.00000000, 0.00000000, 0.82720000, -0.51480001, -0.19049999, -0.11920000, 0.00100000, -0.00200000, 0.00000000, 0.00000000, 0.00000000, 0.00000000, 0.00000000
1, 1.9100, 191, 0.00000000, 0.00000000, 0.00000000, 0.00000000, 0.00000000, 0.00000000, 0.00000000, 0.00000000, 0.00000000, 0.00000000, 0.00000000, 0.00000000, 0.82720000, -0.51480001, -0.19049999, -0.11920000, -0.00100000, -0.00200000, 0.00000000, 0.00000000, 0.00000000, 0.00000000, 0.00000000
4, 1.8900, 189, 0.00000000, 0.00000000, 0.00000000, 0.00000000, 0.00000000, 0.00000000, 0.00000000, 0.00000000, 0.00000000, 0.00000000, 0.00000000, 0.00000000, 0.80939996, -0.57779998, 0.03280000, -0.09869999, 0.00300000, 0.00000000, -0.00200000, 0.00000000, 0.00000000, 0.00000000, 0.00000000
1, 1.9200, 192, 0.00000000, 0.00000000, 0.00000000, 0.00000000, 0.00000000, 0.00000000, 0.00000000, 0.00000000, 0.00000000, 0.00000000, 0.00000000, 0.00000000, 0.82720000, -0.51480001, -0.19059999, -0.11920000, -0.00200000, 0.00000000, 0.00100000, 0.00000000, 0.00000000, 0.00000000, 0.00000000
1, 1.9300, 193, 0.00000000, 0.00000000, 0.00000000, 0.00000000, 0.00000000, 0.00000000, 0.00000000, 0.00000000, 0.00000000, 0.00000000, 0.00000000, 0.00000000, 0.82720000, -0.51480001, -0.19049999, -0.11920000, -0.00200000, -0.00200000, 0.00000000, 0.00000000, 0.00000000, 0.00000000, 0.00000000
4, 1.9000, 190, 0.00000000, 0.00000000, 0.00000000, 0.00000000, 0.00000000, 0.00000000, 0.00000000, 0.00000000, 0.00000000, 0.00000000, 0.00000000, 0.00000000, 0.80939996, -0.57779998, 0.03290000, -0.09869999, 0.00300000, 0.00000000, -0.00700000, 0.00000000, 0.00000000, 0.00000000, 0.00000000
1, 1.9400, 194, 0.00000000, 0.00000000, 0.00000000, 0.00000000, 0.00000000, 0.00000000, 0.00000000, 0.00000000, 0.00000000, 0.00000000, 0.00000000, 0.00000000, 0.82720000, -0.51480001, -0.19049999, -0.11930000, -0.00200000, -0.00200000, 0.00000000, 0.00000000, 0.00000000, 0.00000000, 0.00000000
1, 1.9500, 195, 0.00000000, 0.00000000, 0.00000000, 0.00000000, 0.00000000, 0.00000000, 0.00000000, 0.00000000, 0.00000000, 0.00000000, 0.00000000, 0.00000000, 0.82720000, -0.51480001, -0.19049999, -0.11930000, -0.00100000, -0.00200000, 0.00000000, 0.00000000, 0.00000000, 0.00000000, 0.00000000
4, 1.9100, 191, 0.00000000, 0.00000000, 0.00000000, 0.00000000, 0.00000000, 0.00000000, 0.00000000, 0.00000000, 0.00000000, 0.00000000, 0.00000000, 0.00000000, 0.80939996, -0.57779998, 0.03280000, -0.09880000, 0.00100000, 0.00000000, -0.00800000, 0.00000000, 0.00000000, 0.00000000, 0.00000000
1, 1.9600, 196, 0.00000000, 0.00000000, 0.00000000, 0.00000000, 0.00000000, 0.00000000, 0.00000000, 0.00000000, 0.00000000, 0.00000000, 0.00000000, 0.00000000, 0.82720000, -0.51480001, -0.19049999, -0.11930000, 0.00200000, -0.00100000, 0.00100000, 0.00000000, 0.00000000, 0.00000000, 0.00000000
4, 1.9200, 192, 0.00000000, 0.00000000, 0.00000000, 0.00000000, 0.00000000, 0.00000000, 0.00000000, 0.00000000, 0.00000000, 0.00000000, 0.00000000, 0.00000000, 0.80939996, -0.57779998, 0.03270000, -0.09890000, -0.00100000, 0.00000000, -0.00600000, 0.00000000, 0.00000000, 0.00000000, 0.00000000
4, 1.9300, 193, 0.00000000, 0.00000000, 0.00000000, 0.00000000, 0.00000000, 0.00000000, 0.00000000, 0.00000000, 0.00000000, 0.00000000, 0.00000000, 0.00000000, 0.80939996, -0.57779998, 0.03250000, -0.09890000, 0.00000000, -0.00200000, -0.00500000, 0.00000000, 0.00000000, 0.00000000, 0.00000000
4, 1.9400, 194, 0.00000000, 0.00000000, 0.00000000, 0.00000000, 0.00000000, 0.00000000, 0.00000000, 0.00000000, 0.00000000, 0.00000000, 0.00000000, 0.00000000, 0.80939996, -0.57779998, 0.03250000, -0.09890000, -0.00300000, 0.00000000, -0.00100000, 0.00000000, 0.00000000, 0.00000000, 0.00000000
4, 1.9500, 195, 0.00000000, 0.00000000, 0.00000000, 0.00000000, 0.00000000, 0.00000000, 0.00000000, 0.00000000, 0.00000000, 0.00000000, 0.00000000, 0.00000000, 0.80939996, -0.57779998, 0.03250000, -0.09890000, 0.00200000, 0.00100000, -0.00100000, 0.00000000, 0.00000000, 0.00000000, 0.00000000
4, 1.9600, 196, 0.00000000, 0.00000000, 0.00000000, 0.00000000, 0.00000000, 0.00000000, 0.00000000, 0.00000000, 0.00000000, 0.00000000, 0.00000000, 0.00000000, 0.80939996, -0.57779998, 0.03250000, -0.09890000, 0.00300000, 0.00000000, 0.00000000, 0.00000000, 0.00000000, 0.00000000, 0.00000000
4, 1.9700, 197, 0.00000000, 0.00000000, 0.00000000, 0.00000000, 0.00000000, 0.00000000, 0.00000000, 0.00000000, 0.00000000, 0.00000000, 0.00000000, 0.00000000, 0.80939996, -0.57779998, 0.03260000, -0.09900000, 0.00700000, -0.00100000, -0.00100000, 0.00000000, 0.00000000, 0.00000000, 0.00000000
1, 1.9700, 197, 0.00000000, 0.00000000, 0.00000000, 0.00000000, 0.00000000, 0.00000000, 0.00000000, 0.00000000, 0.00000000, 0.00000000, 0.00000000, 0.00000000, 0.82720000, -0.51480001, -0.19039999, -0.11939999, 0.00200000, -0.00100000, 0.00200000, 0.00000000, 0.00000000, 0.00000000, 0.00000000
1, 1.9800, 198, 0.00000000, 0.00000000, 0.00000000, 0.00000000, 0.00000000, 0.00000000, 0.00000000, 0.00000000, 0.00000000, 0.00000000, 0.00000000, 0.00000000, 0.82720000, -0.51480001, -0.19039999, -0.11939999, 0.00000000, -0.00100000, 0.00000000, 0.00000000, 0.00000000, 0.00000000, 0.00000000
4, 1.9800, 198, 0.00000000, 0.00000000, 0.00000000, 0.00000000, 0.00000000, 0.00000000, 0.00000000, 0.00000000, 0.00000000, 0.00000000, 0.00000000, 0.00000000, 0.80939996, -0.57779998, 0.03270000, -0.09910000, 0.00700000, -0.00200000, -0.00200000, 0.00000000, 0.00000000, 0.00000000, 0.00000000
1, 1.9900, 199, 0.00000000, 0.00000000, 0.00000000, 0.00000000, 0.00000000, 0.00000000, 0.00000000, 0.00000000, 0.00000000, 0.00000000, 0.00000000, 0.00000000, 0.82720000, -0.51480001, -0.19039999, -0.11939999, 0.00000000, -0.00300000, 0.00000000, 0.00000000, 0.00000000, 0.00000000, 0.00000000
4, 1.9900, 199, 0.00000000, 0.00000000, 0.00000000, 0.00000000, 0.00000000, 0.00000000, 0.00000000, 0.00000000, 0.00000000, 0.00000000, 0.00000000, 0.00000000, 0.80939996, -0.57769996, 0.03270000, -0.09920000, 0.00700000, -0.00100000, -0.00200000, 0.00000000, 0.00000000, 0.00000000, 0.00000000
1, 2.0000, 200, 0.00000000, 0.00000000, 0.00000000, 0.00000000, 0.00000000, 0.00000000, 0.00000000, 0.00000000, 0.00000000, 0.00000000, 0.00000000, 0.00000000, 0.82729995, -0.51480001, -0.19039999, -0.11939999, 0.00000000, -0.00200000, 0.00000000, 0.00000000, 0.00000000, 0.00000000, 0.00000000
4, 2.0000, 200, 0.00000000, 0.00000000, 0.00000000, 0.00000000, 0.00000000, 0.00000000, 0.00000000, 0.00000000, 0.00000000, 0.00000000, 0.00000000, 0.00000000, 0.80939996, -0.57769996, 0.03260000, -0.09930000, 0.00100000, 0.00000000, 0.00000000, 0.00000000, 0.00000000, 0.00000000, 0.00000000
1, 2.0100, 201, 0.00000000, 0.00000000, 0.00000000, 0.00000000, 0.00000000, 0.00000000, 0.00000000, 0.00000000, 0.00000000, 0.00000000, 0.00000000, 0.00000000, 0.82729995, -0.51470000, -0.19039999, -0.11939999, -0.00100000, -0.00200000, 0.00100000, 0.00000000, 0.00000000, 0.00000000, 0.00000000
1, 2.0200, 202, 0.00000000, 0.00000000, 0.00000000, 0.00000000, 0.00000000, 0.00000000, 0.00000000, 0.00000000, 0.00000000, 0.00000000, 0.00000000, 0.00000000, 0.82729995, -0.51470000, -0.19039999, -0.11939999, -0.00300000, -0.00200000, 0.00100000, 0.00000000, 0.00000000, 0.00000000, 0.00000000
4, 2.0100, 201, 0.00000000, 0.00000000, 0.00000000, 0.00000000, 0.00000000, 0.00000000, 0.00000000, 0.00000000, 0.00000000, 0.00000000, 0.00000000, 0.00000000, 0.80939996, -0.57769996, 0.03260000, -0.09920000, -0.00500000, 0.00000000, 0.00000000, 0.00000000, 0.00000000, 0.00000000, 0.00000000
1, 2.0300, 203, 0.00000000, 0.00000000, 0.00000000, 0.00000000, 0.00000000, 0.00000000, 0.00000000, 0.00000000, 0.00000000, 0.00000000, 0.00000000, 0.00000000, 0.82729995, -0.51470000, -0.19039999, -0.11939999, 0.00000000, -0.00200000, 0.00100000, 0.00000000, 0.00000000, 0.00000000, 0.00000000
